workerid,proliferate.condition,ISI,id,item,response,rt,slide_number_in_experiment,trial_type,error
94,group_5,698,41,buño,f,2169,8,distractor,
94,group_5,664,38,sica,f,1271,9,distractor,
94,group_5,767,41,tija,f,1436,10,distractor,
94,group_5,642,38,ripa,f,1662,11,distractor,
94,group_5,791,22,biclero,f,2461,12,distractor,
94,group_5,760,24,moda,j,1617,13,stem_o,
94,group_5,729,22,jiplena,f,1631,14,distractor,
94,group_5,732,24,modo,j,1690,15,stem_o,
94,group_5,766,30,ramo,j,1530,16,stem_a,
94,group_5,702,11,letra,j,1585,17,gender_a,
94,group_5,600,30,rama,j,1267,18,stem_a,
94,group_5,713,11,costa,j,1388,19,gender_a,
94,group_5,799,4,caña,j,1418,20,stem_o,
94,group_5,754,33,rimpa,f,1737,21,distractor,
94,group_5,636,4,caño,f,1369,22,stem_o,
94,group_5,623,33,runzo,f,1483,23,distractor,
94,group_5,776,7,cinto,j,1974,24,ident_o,
94,group_5,766,11,masta,f,1571,25,distractor,
94,group_5,749,7,cinto,j,1845,26,ident_o,
94,group_5,651,11,cucto,f,1468,27,distractor,
94,group_5,692,5,cina,f,1822,28,distractor,
94,group_5,667,23,loma,j,1458,29,ident_a,
94,group_5,757,5,cijo,f,1655,30,distractor,
94,group_5,624,23,loma,j,1663,31,ident_a,
94,group_5,713,43,bomo,f,1516,32,distractor,
94,group_5,606,21,trigo,j,1293,33,gender_o,
94,group_5,649,43,roga,f,2292,34,distractor,
94,group_5,644,21,gramo,j,1419,35,gender_o,
94,group_5,752,5,cepo,f,1500,36,stem_a,
94,group_5,619,39,tormenta,j,1413,37,stem_o,
94,group_5,680,5,cepa,j,1487,38,stem_a,
94,group_5,798,39,tormento,j,1652,39,stem_o,
94,group_5,763,23,fopa,f,1519,40,distractor,
94,group_5,653,21,crano,f,1727,41,distractor,
94,group_5,722,23,rono,f,1508,42,distractor,
94,group_5,726,21,prasa,f,1441,43,distractor,
94,group_5,747,8,pojo,f,2048,44,distractor,
94,group_5,731,6,arcada,j,1584,45,gender_a,
94,group_5,726,8,moga,f,1458,46,distractor,
94,group_5,701,6,cigarra,j,1327,47,gender_a,
94,group_5,788,40,trompo,j,1607,48,stem_a,
94,group_5,727,26,deuda,j,1663,49,gender_a,
94,group_5,640,40,trompa,j,1886,50,stem_a,
94,group_5,676,26,plaza,j,2063,51,gender_a,
94,group_5,789,32,rótulo,j,1625,52,ident_o,
94,group_5,634,1,circo,j,1481,53,gender_o,
94,group_5,772,32,rótulo,j,1369,54,ident_o,
94,group_5,712,1,bando,j,1585,55,gender_o,
94,group_5,715,9,cochinilla,j,1546,56,stem_o,
94,group_5,715,37,solano,f,2019,57,ident_o,
94,group_5,678,9,cochinillo,j,1481,58,stem_o,
94,group_5,796,37,solano,f,1992,59,ident_o,
94,group_5,629,35,redo,f,1776,60,distractor,
94,group_5,625,16,falda,j,1298,61,gender_a,
94,group_5,766,35,leca,f,1848,62,distractor,
94,group_5,634,16,fauna,j,2014,63,gender_a,
94,group_5,614,12,coto,f,1387,64,ident_o,
94,group_5,721,42,farana,f,1637,65,distractor,
94,group_5,781,12,coto,f,1605,66,ident_o,
94,group_5,706,42,zaniro,f,1665,67,distractor,
94,group_5,798,34,madara,f,1675,68,distractor,
94,group_5,660,26,cielo,j,1379,69,gender_o,
94,group_5,765,34,pasino,f,1508,70,distractor,
94,group_5,670,26,plazo,j,1323,71,gender_o,
94,group_5,765,45,praca,f,1575,72,distractor,
94,group_5,782,14,miba,f,1550,73,distractor,
94,group_5,793,45,stado,f,1507,74,distractor,
94,group_5,621,14,puco,f,1410,75,distractor,
94,group_5,629,26,fraja,f,2048,76,distractor,
94,group_5,619,20,gotero,j,1941,77,stem_a,
94,group_5,710,26,glajo,f,1691,78,distractor,
94,group_5,655,20,gotera,j,1518,79,stem_a,
94,group_5,764,31,esfera,j,1539,80,gender_a,
94,group_5,734,11,metro,j,2007,81,gender_o,
94,group_5,661,31,rodilla,j,1414,82,gender_a,
94,group_5,643,11,costo,j,1276,83,gender_o,
94,group_5,608,17,gona,f,1352,84,distractor,
94,group_5,730,24,tofo,f,1542,85,distractor,
94,group_5,601,17,rono,f,1389,86,distractor,
94,group_5,731,24,pona,f,1378,87,distractor,
94,group_5,714,38,tina,j,1831,88,ident_a,
94,group_5,646,29,murila,f,1850,89,distractor,
94,group_5,679,38,tina,j,1502,90,ident_a,
94,group_5,662,29,mubala,f,1417,91,distractor,
94,group_5,725,30,tago,f,2073,92,distractor,
94,group_5,694,4,pafo,f,1508,93,distractor,
94,group_5,748,30,sasa,f,1920,94,distractor,
94,group_5,664,4,maba,f,1860,95,distractor,
94,group_5,679,33,rumba,j,1457,96,ident_a,
94,group_5,680,18,fonda,j,1511,97,ident_a,
94,group_5,616,33,rumba,j,1306,98,ident_a,
94,group_5,696,18,fonda,j,1605,99,ident_a,
94,group_5,634,35,seto,f,1511,100,stem_a,
94,group_5,709,17,foco,j,1485,101,ident_o,
94,group_5,785,35,seta,j,1534,102,stem_a,
94,group_5,655,17,foco,j,1860,103,ident_o,
94,group_5,656,21,sarta,f,1503,104,gender_a,
94,group_5,788,13,cusbarno,f,1827,105,distractor,
94,group_5,758,21,grama,j,1545,106,gender_a,
94,group_5,775,13,cualarsa,f,1849,107,distractor,
94,group_5,788,40,tropso,f,1710,108,distractor,
94,group_5,653,10,correo,j,2068,109,stem_a,
94,group_5,757,40,trimba,f,1613,110,distractor,
94,group_5,755,10,correa,j,2221,111,stem_a,
94,group_5,702,31,retazo,j,2809,112,gender_o,
94,group_5,604,3,braza,j,1781,113,ident_a,
94,group_5,633,31,rodillo,j,1456,114,gender_o,
94,group_5,734,3,braza,j,1409,115,ident_a,
94,group_5,625,1,fendo,f,1445,116,distractor,
94,group_5,655,37,tonaco,f,1379,117,distractor,
94,group_5,762,1,lunda,f,1658,118,distractor,
94,group_5,720,37,dorina,f,1301,119,distractor,
94,group_5,677,13,cuaderna,j,1455,120,ident_a,
94,group_5,645,19,gimnasia,j,1298,121,stem_o,
94,group_5,608,13,cuaderna,j,1248,122,ident_a,
94,group_5,758,19,gimnasio,j,1394,123,stem_o,
94,group_5,688,6,pleito,j,1516,124,gender_o,
94,group_5,792,41,pozo,j,1593,125,gender_o,
94,group_5,687,6,cigarro,j,1582,126,gender_o,
94,group_5,654,41,tubo,j,1397,127,gender_o,
94,group_5,771,1,etapa,j,1681,128,gender_a,
94,group_5,703,12,tofa,f,1355,129,distractor,
94,group_5,722,1,banda,j,1714,130,gender_a,
94,group_5,605,12,poño,f,1418,131,distractor,
94,group_5,649,20,folena,f,1374,132,distractor,
94,group_5,687,29,pupila,j,1644,133,stem_o,
94,group_5,600,20,fomero,f,1449,134,distractor,
94,group_5,601,29,pupilo,j,1350,135,stem_o,
94,group_5,677,2,bazo,j,1706,136,ident_o,
94,group_5,710,27,puerto,j,1640,137,ident_o,
94,group_5,620,2,bazo,j,1658,138,ident_o,
94,group_5,696,27,puerto,j,1608,139,ident_o,
94,group_5,695,42,zapato,j,1612,140,ident_o,
94,group_5,604,41,tila,f,1412,141,gender_a,
94,group_5,763,42,zapato,j,1410,142,ident_o,
94,group_5,601,41,tuba,f,1600,143,gender_a,
94,group_5,644,36,miedo,j,1340,144,gender_o,
94,group_5,687,19,gosdasia,f,1387,145,distractor,
94,group_5,781,36,siglo,j,1567,146,gender_o,
94,group_5,713,19,fulnasio,f,1420,147,distractor,
94,group_5,800,31,sopallo,f,1581,148,distractor,
94,group_5,651,10,mecheo,j,1692,149,distractor,
94,group_5,722,31,dogalla,f,2057,150,distractor,
94,group_5,792,10,miplea,f,1618,151,distractor,
94,group_5,786,15,caisco,f,1728,152,distractor,
94,group_5,643,25,brada,f,1424,153,distractor,
94,group_5,720,15,ciesca,f,1909,154,distractor,
94,group_5,746,25,flada,f,1891,155,distractor,
94,group_5,754,14,cuba,j,1983,156,stem_o,
94,group_5,769,32,doduza,f,1458,157,distractor,
94,group_5,744,14,cubo,j,1404,158,stem_o,
94,group_5,714,32,dosumo,f,1366,159,distractor,
94,group_5,781,16,fiemo,f,1494,160,distractor,
94,group_5,759,44,bapo,f,1700,161,distractor,
94,group_5,700,16,faira,f,1585,162,distractor,
94,group_5,617,44,volo,j,1885,163,distractor,
94,group_5,796,9,cotlecirro,f,2021,164,distractor,
94,group_5,765,22,libreto,j,1788,165,ident_o,
94,group_5,700,9,cotlericha,f,1640,166,distractor,
94,group_5,626,22,libreto,j,1384,167,ident_o,
94,group_5,606,2,rava,f,1555,168,distractor,
94,group_5,735,18,vindo,f,1658,169,distractor,
94,group_5,765,2,laño,f,1699,170,distractor,
94,group_5,661,18,lenda,f,1366,171,distractor,
94,group_5,607,15,cuenco,j,1706,172,stem_a,
94,group_5,671,27,pianta,f,1717,173,distractor,
94,group_5,753,15,cuenca,j,1351,174,stem_a,
94,group_5,667,27,pausto,f,1827,175,distractor,
94,group_5,620,39,tonranto,f,1958,176,distractor,
94,group_5,625,36,tifro,f,1541,177,distractor,
94,group_5,725,39,borbanta,f,1415,178,distractor,
94,group_5,722,36,rifra,f,2281,179,distractor,
94,group_5,668,16,abeto,j,1912,180,gender_o,
94,group_5,621,36,selva,j,1416,181,gender_a,
94,group_5,768,16,fauno,j,2452,182,gender_o,
94,group_5,701,36,sigla,j,1635,183,gender_a,
94,group_5,730,6,cidicha,f,1404,184,distractor,
94,group_5,740,7,custa,f,1554,185,distractor,
94,group_5,653,6,cipicho,f,1786,186,distractor,
94,group_5,768,7,micto,f,1605,187,distractor,
94,group_5,772,8,coca,j,1479,188,ident_a,
94,group_5,609,25,plato,j,1438,189,stem_a,
94,group_5,731,8,coca,j,1387,190,ident_a,
94,group_5,730,25,plata,j,1765,191,stem_a,
94,group_5,753,28,pusbo,f,1441,192,distractor,
94,group_5,761,34,sátira,j,1673,193,stem_o,
94,group_5,613,28,punra,f,1358,194,distractor,
94,group_5,711,34,sátiro,j,1434,195,stem_o,
94,group_5,645,3,fraña,f,1653,196,distractor,
94,group_5,775,28,pulpa,j,1468,197,ident_a,
94,group_5,729,3,plavo,f,1666,198,distractor,
94,group_5,769,28,pulpa,j,1857,199,ident_a,
129,group_5,711,31,sopallo,f,2708,8,distractor,
129,group_5,613,21,crano,f,10723,9,distractor,
129,group_5,604,31,dogalla,f,2516,10,distractor,
129,group_5,748,21,prasa,f,3100,11,distractor,
129,group_5,729,16,abeto,f,2215,12,gender_o,
129,group_5,753,16,faira,j,6862,13,distractor,
129,group_5,644,16,fauno,j,1868,14,gender_o,
129,group_5,726,16,fiemo,f,5535,15,distractor,
129,group_5,667,21,trigo,j,2748,16,gender_o,
129,group_5,769,4,caña,j,1760,17,stem_o,
129,group_5,649,21,gramo,j,1611,18,gender_o,
129,group_5,613,4,caño,j,1891,19,stem_o,
129,group_5,728,35,seto,f,2340,20,stem_a,
129,group_5,637,11,letra,j,1999,21,gender_a,
129,group_5,627,35,seta,f,1603,22,stem_a,
129,group_5,782,11,costa,j,2048,23,gender_a,
129,group_5,773,30,ramo,j,1981,24,stem_a,
129,group_5,776,42,farana,j,2732,25,distractor,
129,group_5,705,30,rama,j,1815,26,stem_a,
129,group_5,706,42,zaniro,f,2075,27,distractor,
129,group_5,765,45,praca,f,1919,28,distractor,
129,group_5,754,10,miplea,f,3071,29,distractor,
129,group_5,708,45,stado,f,2168,30,distractor,
129,group_5,736,10,mecheo,j,2230,31,distractor,
129,group_5,784,18,fonda,j,1690,32,ident_a,
129,group_5,794,27,puerto,j,1673,33,ident_o,
129,group_5,724,18,fonda,j,1634,34,ident_a,
129,group_5,685,27,puerto,j,1646,35,ident_o,
129,group_5,734,37,dorina,f,1830,36,distractor,
129,group_5,791,26,deuda,j,2116,37,gender_a,
129,group_5,715,37,tonaco,f,2230,38,distractor,
129,group_5,763,26,plaza,j,1594,39,gender_a,
129,group_5,760,27,pianta,f,2106,40,distractor,
129,group_5,609,24,tofo,f,1538,41,distractor,
129,group_5,747,27,pausto,f,2063,42,distractor,
129,group_5,632,24,pona,f,1616,43,distractor,
129,group_5,677,3,fraña,f,1778,44,distractor,
129,group_5,690,34,sátira,j,1970,45,stem_o,
129,group_5,624,3,plavo,f,2024,46,distractor,
129,group_5,633,34,sátiro,j,2218,47,stem_o,
129,group_5,633,33,rimpa,j,2002,48,distractor,
129,group_5,650,26,glajo,f,1920,49,distractor,
129,group_5,722,33,runzo,f,1582,50,distractor,
129,group_5,633,26,fraja,f,2473,51,distractor,
129,group_5,720,1,etapa,j,1563,52,gender_a,
129,group_5,765,41,tila,j,2240,53,gender_a,
129,group_5,655,1,banda,j,1530,54,gender_a,
129,group_5,747,41,tuba,j,2673,55,gender_a,
129,group_5,758,21,sarta,j,2420,56,gender_a,
129,group_5,723,15,cuenco,j,2229,57,stem_a,
129,group_5,650,21,grama,f,1968,58,gender_a,
129,group_5,793,15,cuenca,j,1865,59,stem_a,
129,group_5,694,43,bomo,f,1707,60,distractor,
129,group_5,602,1,circo,j,1368,61,gender_o,
129,group_5,694,43,roga,f,2658,62,distractor,
129,group_5,600,1,bando,j,1744,63,gender_o,
129,group_5,783,12,coto,j,1969,64,ident_o,
129,group_5,791,40,trimba,j,4791,65,distractor,
129,group_5,610,12,coto,j,1605,66,ident_o,
129,group_5,744,40,tropso,f,1912,67,distractor,
129,group_5,603,15,ciesca,f,5512,68,distractor,
129,group_5,614,33,rumba,j,2207,69,ident_a,
129,group_5,629,15,caisco,f,2099,70,distractor,
129,group_5,782,33,rumba,j,1996,71,ident_a,
129,group_5,775,2,bazo,f,1706,72,ident_o,
129,group_5,790,13,cuaderna,f,1902,73,ident_a,
129,group_5,759,2,bazo,f,3856,74,ident_o,
129,group_5,655,13,cuaderna,f,1766,75,ident_a,
129,group_5,721,9,cotlecirro,f,1653,76,distractor,
129,group_5,767,4,pafo,f,1534,77,distractor,
129,group_5,674,9,cotlericha,f,1423,78,distractor,
129,group_5,626,4,maba,f,1486,79,distractor,
129,group_5,645,18,lenda,f,1926,80,distractor,
129,group_5,797,28,pusbo,f,1511,81,distractor,
129,group_5,791,18,vindo,f,1572,82,distractor,
129,group_5,758,28,punra,f,1693,83,distractor,
129,group_5,790,25,brada,f,1562,84,distractor,
129,group_5,735,19,gimnasia,j,2904,85,stem_o,
129,group_5,673,25,flada,f,2722,86,distractor,
129,group_5,627,19,gimnasio,j,3157,87,stem_o,
129,group_5,628,11,cucto,f,2026,88,distractor,
129,group_5,608,24,moda,j,1450,89,stem_o,
129,group_5,774,11,masta,f,3671,90,distractor,
129,group_5,780,24,modo,j,1649,91,stem_o,
129,group_5,716,39,tormenta,j,2264,92,stem_o,
129,group_5,722,10,correo,j,1515,93,stem_a,
129,group_5,798,39,tormento,j,1853,94,stem_o,
129,group_5,608,10,correa,j,1585,95,stem_a,
129,group_5,787,34,madara,f,1724,96,distractor,
129,group_5,731,31,retazo,j,2887,97,gender_o,
129,group_5,621,34,pasino,f,3211,98,distractor,
129,group_5,712,31,rodillo,j,1778,99,gender_o,
129,group_5,767,26,cielo,j,1464,100,gender_o,
129,group_5,615,44,bapo,f,1451,101,distractor,
129,group_5,673,26,plazo,j,1806,102,gender_o,
129,group_5,725,44,volo,j,2768,103,distractor,
129,group_5,722,41,pozo,j,1475,104,gender_o,
129,group_5,649,41,tija,j,3481,105,distractor,
129,group_5,615,41,tubo,j,2611,106,gender_o,
129,group_5,790,41,buño,f,3231,107,distractor,
129,group_5,714,28,pulpa,j,1768,108,ident_a,
129,group_5,637,22,jiplena,f,1694,109,distractor,
129,group_5,617,28,pulpa,j,1353,110,ident_a,
129,group_5,763,22,biclero,f,2728,111,distractor,
129,group_5,780,17,foco,j,1788,112,ident_o,
129,group_5,647,7,cinto,j,1955,113,ident_o,
129,group_5,631,17,foco,j,3041,114,ident_o,
129,group_5,798,7,cinto,j,2130,115,ident_o,
129,group_5,670,6,cipicho,f,1721,116,distractor,
129,group_5,693,29,pupila,j,1687,117,stem_o,
129,group_5,653,6,cidicha,f,3260,118,distractor,
129,group_5,628,29,pupilo,j,1605,119,stem_o,
129,group_5,676,2,rava,j,2823,120,distractor,
129,group_5,738,11,metro,j,2252,121,gender_o,
129,group_5,617,2,laño,j,1869,122,distractor,
129,group_5,626,11,costo,j,1888,123,gender_o,
129,group_5,797,22,libreto,j,1754,124,ident_o,
129,group_5,717,5,cina,f,3030,125,distractor,
129,group_5,603,22,libreto,j,1252,126,ident_o,
129,group_5,672,5,cijo,f,1687,127,distractor,
129,group_5,656,17,rono,f,1883,128,distractor,
129,group_5,644,25,plato,j,1260,129,stem_a,
129,group_5,733,17,gona,j,6276,130,distractor,
129,group_5,750,25,plata,j,1362,131,stem_a,
129,group_5,646,38,tina,j,1326,132,ident_a,
129,group_5,768,8,coca,j,1369,133,ident_a,
129,group_5,631,38,tina,j,1229,134,ident_a,
129,group_5,778,8,coca,j,1329,135,ident_a,
129,group_5,754,6,pleito,j,1408,136,gender_o,
129,group_5,631,35,leca,j,2718,137,distractor,
129,group_5,642,6,cigarro,j,1402,138,gender_o,
129,group_5,762,35,redo,f,2308,139,distractor,
129,group_5,674,12,poño,f,1646,140,distractor,
129,group_5,670,6,arcada,f,2883,141,gender_a,
129,group_5,695,12,tofa,f,2707,142,distractor,
129,group_5,701,6,cigarra,j,1792,143,gender_a,
129,group_5,704,23,fopa,f,4378,144,distractor,
129,group_5,734,23,loma,j,1837,145,ident_a,
129,group_5,739,23,rono,f,2358,146,distractor,
129,group_5,754,23,loma,j,1439,147,ident_a,
129,group_5,748,1,lunda,f,2231,148,distractor,
129,group_5,786,42,zapato,j,1428,149,ident_o,
129,group_5,743,1,fendo,f,2653,150,distractor,
129,group_5,699,42,zapato,j,1493,151,ident_o,
129,group_5,775,31,esfera,j,1416,152,gender_a,
129,group_5,609,14,cuba,j,1647,153,stem_o,
129,group_5,630,31,rodilla,j,1195,154,gender_a,
129,group_5,785,14,cubo,j,2127,155,stem_o,
129,group_5,673,19,fulnasio,f,1614,156,distractor,
129,group_5,620,36,rifra,f,1683,157,distractor,
129,group_5,675,19,gosdasia,j,1728,158,distractor,
129,group_5,753,36,tifro,f,1785,159,distractor,
129,group_5,656,32,doduza,f,1625,160,distractor,
129,group_5,768,29,mubala,f,1821,161,distractor,
129,group_5,629,32,dosumo,f,1542,162,distractor,
129,group_5,679,29,murila,f,1407,163,distractor,
129,group_5,651,39,tonranto,f,2391,164,distractor,
129,group_5,678,40,trompo,j,1972,165,stem_a,
129,group_5,725,39,borbanta,f,1640,166,distractor,
129,group_5,791,40,trompa,j,1678,167,stem_a,
129,group_5,706,30,tago,f,2455,168,distractor,
129,group_5,642,20,gotero,j,1962,169,stem_a,
129,group_5,604,30,sasa,f,2067,170,distractor,
129,group_5,682,20,gotera,j,1400,171,stem_a,
129,group_5,627,13,cualarsa,f,1507,172,distractor,
129,group_5,716,14,puco,f,1433,173,distractor,
129,group_5,720,13,cusbarno,f,1681,174,distractor,
129,group_5,702,14,miba,f,2281,175,distractor,
129,group_5,789,3,braza,f,1614,176,ident_a,
129,group_5,683,8,pojo,f,1742,177,distractor,
129,group_5,761,3,braza,j,1388,178,ident_a,
129,group_5,723,8,moga,f,2935,179,distractor,
129,group_5,666,36,miedo,j,1364,180,gender_o,
129,group_5,691,9,cochinilla,j,2260,181,stem_o,
129,group_5,745,36,siglo,j,1394,182,gender_o,
129,group_5,625,9,cochinillo,f,2400,183,stem_o,
129,group_5,756,38,ripa,f,1728,184,distractor,
129,group_5,622,36,selva,j,1356,185,gender_a,
129,group_5,668,38,sica,j,2949,186,distractor,
129,group_5,683,36,sigla,j,1897,187,gender_a,
129,group_5,693,7,custa,f,2850,188,distractor,
129,group_5,738,20,fomero,f,3368,189,distractor,
129,group_5,664,7,micto,j,729,190,distractor,
129,group_5,658,20,folena,f,1731,191,distractor,
129,group_5,730,32,rótulo,j,1768,192,ident_o,
129,group_5,786,16,falda,j,1398,193,gender_a,
129,group_5,792,32,rótulo,j,1565,194,ident_o,
129,group_5,648,16,fauna,j,1380,195,gender_a,
129,group_5,711,5,cepo,f,4084,196,stem_a,
129,group_5,737,37,solano,j,2127,197,ident_o,
129,group_5,690,5,cepa,j,1492,198,stem_a,
129,group_5,621,37,solano,j,1782,199,ident_o,
119,group_5,693,31,esfera,j,2395,8,gender_a,
119,group_5,640,13,cualarsa,f,1595,9,distractor,
119,group_5,675,31,rodilla,j,1652,10,gender_a,
119,group_5,671,13,cusbarno,f,1478,11,distractor,
119,group_5,777,28,punra,f,1605,12,distractor,
119,group_5,643,31,retazo,f,1583,13,gender_o,
119,group_5,664,28,pusbo,f,1312,14,distractor,
119,group_5,726,31,rodillo,j,1515,15,gender_o,
119,group_5,605,41,tila,j,1559,16,gender_a,
119,group_5,694,1,etapa,j,1397,17,gender_a,
119,group_5,647,41,tuba,j,1653,18,gender_a,
119,group_5,709,1,banda,j,1365,19,gender_a,
119,group_5,715,39,tonranto,f,1516,20,distractor,
119,group_5,800,16,abeto,f,1871,21,gender_o,
119,group_5,678,39,borbanta,f,1312,22,distractor,
119,group_5,609,16,fauno,j,1871,23,gender_o,
119,group_5,676,16,falda,j,1314,24,gender_a,
119,group_5,613,23,fopa,f,1523,25,distractor,
119,group_5,766,16,fauna,j,1403,26,gender_a,
119,group_5,672,23,rono,f,1394,27,distractor,
119,group_5,718,2,bazo,f,1517,28,ident_o,
119,group_5,602,25,brada,f,1338,29,distractor,
119,group_5,672,2,bazo,j,1580,30,ident_o,
119,group_5,800,25,flada,f,1474,31,distractor,
119,group_5,800,35,seto,f,1462,32,stem_a,
119,group_5,608,6,pleito,f,1290,33,gender_o,
119,group_5,788,35,seta,j,1695,34,stem_a,
119,group_5,632,6,cigarro,f,2804,35,gender_o,
119,group_5,778,41,tija,f,2265,36,distractor,
119,group_5,601,5,cepo,f,1241,37,stem_a,
119,group_5,767,41,buño,f,1970,38,distractor,
119,group_5,605,5,cepa,j,2437,39,stem_a,
119,group_5,788,11,letra,j,1392,40,gender_a,
119,group_5,690,17,rono,f,1398,41,distractor,
119,group_5,768,11,costa,j,1494,42,gender_a,
119,group_5,692,17,gona,f,1511,43,distractor,
119,group_5,670,18,fonda,j,1406,44,ident_a,
119,group_5,672,18,vindo,f,1393,45,distractor,
119,group_5,647,18,fonda,j,1498,46,ident_a,
119,group_5,762,18,lenda,f,1418,47,distractor,
119,group_5,618,16,fiemo,f,1597,48,distractor,
119,group_5,615,31,sopallo,f,1253,49,distractor,
119,group_5,774,16,faira,f,1344,50,distractor,
119,group_5,656,31,dogalla,f,1219,51,distractor,
119,group_5,663,26,cielo,j,1444,52,gender_o,
119,group_5,623,3,plavo,f,1311,53,distractor,
119,group_5,670,26,plazo,j,1403,54,gender_o,
119,group_5,612,3,fraña,f,1237,55,distractor,
119,group_5,616,45,praca,f,1279,56,distractor,
119,group_5,638,43,bomo,f,1291,57,distractor,
119,group_5,704,45,stado,f,1667,58,distractor,
119,group_5,660,43,roga,f,1328,59,distractor,
119,group_5,662,27,puerto,j,1436,60,ident_o,
119,group_5,645,15,caisco,f,1431,61,distractor,
119,group_5,737,27,puerto,j,1454,62,ident_o,
119,group_5,790,15,ciesca,f,1455,63,distractor,
119,group_5,693,42,farana,f,1349,64,distractor,
119,group_5,722,8,coca,j,1377,65,ident_a,
119,group_5,798,42,zaniro,f,1432,66,distractor,
119,group_5,713,8,coca,j,1375,67,ident_a,
119,group_5,711,10,correo,j,1712,68,stem_a,
119,group_5,784,17,foco,j,1412,69,ident_o,
119,group_5,727,10,correa,j,1321,70,stem_a,
119,group_5,711,17,foco,j,1620,71,ident_o,
119,group_5,713,36,rifra,f,1369,72,distractor,
119,group_5,654,39,tormenta,j,1352,73,stem_o,
119,group_5,660,36,tifro,f,1259,74,distractor,
119,group_5,689,39,tormento,f,1462,75,stem_o,
119,group_5,737,20,fomero,f,1215,76,distractor,
119,group_5,749,32,dosumo,f,1301,77,distractor,
119,group_5,745,20,folena,f,1240,78,distractor,
119,group_5,762,32,doduza,f,1299,79,distractor,
119,group_5,776,33,runzo,f,1377,80,distractor,
119,group_5,719,30,tago,f,1413,81,distractor,
119,group_5,619,33,rimpa,f,1100,82,distractor,
119,group_5,601,30,sasa,f,1841,83,distractor,
119,group_5,686,33,rumba,j,1684,84,ident_a,
119,group_5,641,23,loma,j,1403,85,ident_a,
119,group_5,708,33,rumba,j,1500,86,ident_a,
119,group_5,795,23,loma,j,1331,87,ident_a,
119,group_5,610,38,tina,j,1497,88,ident_a,
119,group_5,609,26,deuda,j,1437,89,gender_a,
119,group_5,700,38,tina,j,1465,90,ident_a,
119,group_5,613,26,plaza,j,1366,91,gender_a,
119,group_5,636,21,sarta,f,1535,92,gender_a,
119,group_5,650,25,plato,j,1668,93,stem_a,
119,group_5,646,21,grama,f,1401,94,gender_a,
119,group_5,730,25,plata,j,1511,95,stem_a,
119,group_5,606,36,miedo,j,1179,96,gender_o,
119,group_5,770,7,cinto,j,1708,97,ident_o,
119,group_5,771,36,siglo,j,1593,98,gender_o,
119,group_5,710,7,cinto,j,1363,99,ident_o,
119,group_5,693,3,braza,f,1425,100,ident_a,
119,group_5,657,19,gimnasia,j,1294,101,stem_o,
119,group_5,735,3,braza,f,1465,102,ident_a,
119,group_5,733,19,gimnasio,j,1342,103,stem_o,
119,group_5,667,37,solano,f,2067,104,ident_o,
119,group_5,782,19,fulnasio,f,1439,105,distractor,
119,group_5,748,37,solano,f,1676,106,ident_o,
119,group_5,650,19,gosdasia,f,1278,107,distractor,
119,group_5,664,20,gotero,j,1376,108,stem_a,
119,group_5,602,29,mubala,f,1405,109,distractor,
119,group_5,634,20,gotera,j,1381,110,stem_a,
119,group_5,680,29,murila,f,1254,111,distractor,
119,group_5,754,34,madara,f,1364,112,distractor,
119,group_5,791,12,tofa,f,1437,113,distractor,
119,group_5,682,34,pasino,f,1592,114,distractor,
119,group_5,756,12,poño,f,1342,115,distractor,
119,group_5,636,4,caña,f,1241,116,stem_o,
119,group_5,688,9,cotlecirro,f,1301,117,distractor,
119,group_5,728,4,caño,j,1683,118,stem_o,
119,group_5,740,9,cotlericha,f,1360,119,distractor,
119,group_5,687,1,fendo,f,1336,120,distractor,
119,group_5,616,2,rava,f,1473,121,distractor,
119,group_5,754,1,lunda,f,1510,122,distractor,
119,group_5,636,2,laño,f,1301,123,distractor,
119,group_5,799,42,zapato,j,1633,124,ident_o,
119,group_5,649,36,selva,j,1492,125,gender_a,
119,group_5,648,42,zapato,j,1157,126,ident_o,
119,group_5,697,36,sigla,f,1830,127,gender_a,
119,group_5,796,44,bapo,f,1361,128,distractor,
119,group_5,702,37,tonaco,f,1355,129,distractor,
119,group_5,665,44,volo,f,1320,130,distractor,
119,group_5,800,37,dorina,f,1529,131,distractor,
119,group_5,794,12,coto,f,2630,132,ident_o,
119,group_5,659,1,circo,j,1286,133,gender_o,
119,group_5,777,12,coto,j,1384,134,ident_o,
119,group_5,746,1,bando,f,2382,135,gender_o,
119,group_5,683,29,pupila,f,1267,136,stem_o,
119,group_5,658,11,cucto,f,1725,137,distractor,
119,group_5,704,29,pupilo,j,1468,138,stem_o,
119,group_5,708,11,masta,f,1389,139,distractor,
119,group_5,797,24,tofo,f,1520,140,distractor,
119,group_5,603,40,tropso,f,1176,141,distractor,
119,group_5,762,24,pona,f,1554,142,distractor,
119,group_5,667,40,trimba,f,1308,143,distractor,
119,group_5,760,11,metro,j,1447,144,gender_o,
119,group_5,620,9,cochinilla,j,1686,145,stem_o,
119,group_5,720,11,costo,j,1353,146,gender_o,
119,group_5,776,9,cochinillo,j,1366,147,stem_o,
119,group_5,661,13,cuaderna,f,1628,148,ident_a,
119,group_5,688,26,glajo,f,1232,149,distractor,
119,group_5,687,13,cuaderna,f,1500,150,ident_a,
119,group_5,755,26,fraja,f,1326,151,distractor,
119,group_5,658,5,cina,f,1312,152,distractor,
119,group_5,781,32,rótulo,f,1426,153,ident_o,
119,group_5,784,5,cijo,f,1418,154,distractor,
119,group_5,656,32,rótulo,j,1632,155,ident_o,
119,group_5,796,7,micto,f,1348,156,distractor,
119,group_5,783,30,ramo,j,1503,157,stem_a,
119,group_5,782,7,custa,f,1836,158,distractor,
119,group_5,683,30,rama,j,1471,159,stem_a,
119,group_5,659,27,pianta,f,1422,160,distractor,
119,group_5,745,24,moda,j,1330,161,stem_o,
119,group_5,609,27,pausto,f,1196,162,distractor,
119,group_5,776,24,modo,j,1483,163,stem_o,
119,group_5,780,40,trompo,f,1426,164,stem_a,
119,group_5,610,41,pozo,j,1673,165,gender_o,
119,group_5,764,40,trompa,j,1696,166,stem_a,
119,group_5,728,41,tubo,j,1498,167,gender_o,
119,group_5,630,6,cipicho,f,1336,168,distractor,
119,group_5,773,22,jiplena,f,1424,169,distractor,
119,group_5,643,6,cidicha,f,1241,170,distractor,
119,group_5,791,22,biclero,f,1463,171,distractor,
119,group_5,761,15,cuenco,j,1378,172,stem_a,
119,group_5,776,34,sátira,j,1552,173,stem_o,
119,group_5,680,15,cuenca,j,1440,174,stem_a,
119,group_5,744,34,sátiro,f,3790,175,stem_o,
119,group_5,658,38,sica,f,1299,176,distractor,
119,group_5,703,8,moga,f,1418,177,distractor,
119,group_5,685,38,ripa,f,1205,178,distractor,
119,group_5,687,8,pojo,f,1237,179,distractor,
119,group_5,765,22,libreto,j,1474,180,ident_o,
119,group_5,658,6,arcada,f,1343,181,gender_a,
119,group_5,623,22,libreto,j,1359,182,ident_o,
119,group_5,673,6,cigarra,f,1303,183,gender_a,
119,group_5,742,10,mecheo,f,1352,184,distractor,
119,group_5,800,28,pulpa,j,1451,185,ident_a,
119,group_5,685,10,miplea,f,1323,186,distractor,
119,group_5,656,28,pulpa,j,1276,187,ident_a,
119,group_5,670,14,cuba,j,1573,188,stem_o,
119,group_5,634,4,pafo,f,1218,189,distractor,
119,group_5,662,14,cubo,j,1521,190,stem_o,
119,group_5,757,4,maba,f,1350,191,distractor,
119,group_5,647,21,trigo,j,1426,192,gender_o,
119,group_5,795,21,prasa,f,1373,193,distractor,
119,group_5,746,21,gramo,j,1326,194,gender_o,
119,group_5,608,21,crano,f,1181,195,distractor,
119,group_5,633,35,leca,f,1311,196,distractor,
119,group_5,656,14,miba,f,1222,197,distractor,
119,group_5,774,35,redo,f,1518,198,distractor,
119,group_5,717,14,puco,f,1334,199,distractor,
124,group_5,768,1,circo,j,2176,8,gender_o,
124,group_5,730,14,miba,f,1791,9,distractor,
124,group_5,660,1,bando,j,1350,10,gender_o,
124,group_5,611,14,puco,f,2284,11,distractor,
124,group_5,769,18,vindo,f,1795,12,distractor,
124,group_5,778,16,fiemo,f,2470,13,distractor,
124,group_5,707,18,lenda,f,2120,14,distractor,
124,group_5,679,16,faira,f,2130,15,distractor,
124,group_5,631,38,ripa,f,2975,16,distractor,
124,group_5,742,42,zapato,j,1286,17,ident_o,
124,group_5,607,38,sica,j,2987,18,distractor,
124,group_5,642,42,zapato,j,1224,19,ident_o,
124,group_5,720,30,tago,f,1579,20,distractor,
124,group_5,726,15,caisco,f,1614,21,distractor,
124,group_5,633,30,sasa,f,1728,22,distractor,
124,group_5,742,15,ciesca,f,1970,23,distractor,
124,group_5,656,23,rono,f,1818,24,distractor,
124,group_5,799,11,letra,j,1765,25,gender_a,
124,group_5,694,23,fopa,f,1935,26,distractor,
124,group_5,705,11,costa,j,1445,27,gender_a,
124,group_5,774,21,crano,f,1599,28,distractor,
124,group_5,762,39,borbanta,f,1684,29,distractor,
124,group_5,787,21,prasa,f,1544,30,distractor,
124,group_5,630,39,tonranto,f,1538,31,distractor,
124,group_5,694,28,punra,f,1331,32,distractor,
124,group_5,691,38,tina,j,1458,33,ident_a,
124,group_5,664,28,pusbo,f,1246,34,distractor,
124,group_5,604,38,tina,j,1250,35,ident_a,
124,group_5,702,3,plavo,f,1485,36,distractor,
124,group_5,755,29,murila,j,2299,37,distractor,
124,group_5,743,3,fraña,j,1706,38,distractor,
124,group_5,792,29,mubala,f,1463,39,distractor,
124,group_5,646,42,farana,f,1258,40,distractor,
124,group_5,774,25,plato,j,1310,41,stem_a,
124,group_5,753,42,zaniro,f,2040,42,distractor,
124,group_5,640,25,plata,j,1183,43,stem_a,
124,group_5,768,6,arcada,j,1345,44,gender_a,
124,group_5,775,37,solano,f,1629,45,ident_o,
124,group_5,696,6,cigarra,j,1183,46,gender_a,
124,group_5,769,37,solano,f,1797,47,ident_o,
124,group_5,617,45,praca,f,1643,48,distractor,
124,group_5,653,34,sátira,j,1371,49,stem_o,
124,group_5,606,45,stado,f,1815,50,distractor,
124,group_5,682,34,sátiro,j,1378,51,stem_o,
124,group_5,776,17,rono,f,1608,52,distractor,
124,group_5,774,28,pulpa,j,1528,53,ident_a,
124,group_5,788,17,gona,f,1525,54,distractor,
124,group_5,689,28,pulpa,j,1239,55,ident_a,
124,group_5,742,18,fonda,j,1759,56,ident_a,
124,group_5,636,40,trompo,j,1268,57,stem_a,
124,group_5,600,18,fonda,j,1216,58,ident_a,
124,group_5,611,40,trompa,j,1104,59,stem_a,
124,group_5,771,20,gotero,j,1440,60,stem_a,
124,group_5,743,1,fendo,f,1368,61,distractor,
124,group_5,747,20,gotera,j,1386,62,stem_a,
124,group_5,708,1,lunda,f,1701,63,distractor,
124,group_5,718,22,libreto,j,1404,64,ident_o,
124,group_5,661,29,pupila,j,1583,65,stem_o,
124,group_5,758,22,libreto,j,1483,66,ident_o,
124,group_5,726,29,pupilo,j,1293,67,stem_o,
124,group_5,749,7,micto,f,1690,68,distractor,
124,group_5,690,37,dorina,f,1590,69,distractor,
124,group_5,624,7,custa,f,1954,70,distractor,
124,group_5,800,37,tonaco,f,1718,71,distractor,
124,group_5,647,21,sarta,j,1409,72,gender_a,
124,group_5,604,26,cielo,j,1175,73,gender_o,
124,group_5,725,21,grama,j,2010,74,gender_a,
124,group_5,650,26,plazo,j,1263,75,gender_o,
124,group_5,715,32,doduza,f,1562,76,distractor,
124,group_5,631,39,tormenta,j,1270,77,stem_o,
124,group_5,636,32,dosumo,f,1479,78,distractor,
124,group_5,750,39,tormento,j,1586,79,stem_o,
124,group_5,670,5,cepo,j,2633,80,stem_a,
124,group_5,718,23,loma,j,1517,81,ident_a,
124,group_5,610,5,cepa,j,1227,82,stem_a,
124,group_5,771,23,loma,j,1423,83,ident_a,
124,group_5,676,6,pleito,j,1798,84,gender_o,
124,group_5,784,31,esfera,j,1328,85,gender_a,
124,group_5,729,6,cigarro,j,1564,86,gender_o,
124,group_5,779,31,rodilla,j,1316,87,gender_a,
124,group_5,633,13,cuaderna,f,2088,88,ident_a,
124,group_5,777,3,braza,j,1624,89,ident_a,
124,group_5,624,13,cuaderna,f,1706,90,ident_a,
124,group_5,604,3,braza,j,1449,91,ident_a,
124,group_5,669,36,rifra,j,1368,92,distractor,
124,group_5,699,33,rumba,f,2925,93,ident_a,
124,group_5,666,36,tifro,f,1789,94,distractor,
124,group_5,689,33,rumba,f,2855,95,ident_a,
124,group_5,648,19,gosdasia,f,1633,96,distractor,
124,group_5,675,4,pafo,f,2191,97,distractor,
124,group_5,715,19,fulnasio,f,1444,98,distractor,
124,group_5,670,4,maba,f,1331,99,distractor,
124,group_5,770,31,retazo,j,1429,100,gender_o,
124,group_5,659,15,cuenco,j,2236,101,stem_a,
124,group_5,795,31,rodillo,j,1668,102,gender_o,
124,group_5,668,15,cuenca,j,3291,103,stem_a,
124,group_5,666,11,masta,f,1558,104,distractor,
124,group_5,760,35,seto,j,1746,105,stem_a,
124,group_5,743,11,cucto,f,1544,106,distractor,
124,group_5,695,35,seta,j,1310,107,stem_a,
124,group_5,738,7,cinto,f,1849,108,ident_o,
124,group_5,728,6,cipicho,f,1309,109,distractor,
124,group_5,669,7,cinto,f,1859,110,ident_o,
124,group_5,664,6,cidicha,f,1482,111,distractor,
124,group_5,625,41,tila,f,1507,112,gender_a,
124,group_5,646,20,fomero,f,1912,113,distractor,
124,group_5,756,41,tuba,f,1881,114,gender_a,
124,group_5,617,20,folena,f,1332,115,distractor,
124,group_5,743,26,fraja,f,1670,116,distractor,
124,group_5,674,16,falda,j,1301,117,gender_a,
124,group_5,785,26,glajo,f,1588,118,distractor,
124,group_5,614,16,fauna,j,1319,119,gender_a,
124,group_5,658,31,sopallo,f,1385,120,distractor,
124,group_5,717,24,moda,j,1324,121,stem_o,
124,group_5,677,31,dogalla,f,3076,122,distractor,
124,group_5,622,24,modo,j,1229,123,stem_o,
124,group_5,695,30,ramo,j,1734,124,stem_a,
124,group_5,604,27,puerto,j,1186,125,ident_o,
124,group_5,707,30,rama,j,1318,126,stem_a,
124,group_5,730,27,puerto,j,1214,127,ident_o,
124,group_5,617,9,cochinilla,j,1236,128,stem_o,
124,group_5,671,8,pojo,f,1482,129,distractor,
124,group_5,747,9,cochinillo,j,1303,130,stem_o,
124,group_5,600,8,moga,f,1575,131,distractor,
124,group_5,715,33,runzo,f,1411,132,distractor,
124,group_5,643,36,miedo,j,1199,133,gender_o,
124,group_5,603,33,rimpa,j,1216,134,distractor,
124,group_5,676,36,siglo,j,1237,135,gender_o,
124,group_5,659,16,abeto,f,1453,136,gender_o,
124,group_5,715,9,cotlecirro,f,1351,137,distractor,
124,group_5,614,16,fauno,j,1195,138,gender_o,
124,group_5,615,9,cotlericha,f,1293,139,distractor,
124,group_5,792,21,trigo,j,1304,140,gender_o,
124,group_5,690,4,caña,j,1500,141,stem_o,
124,group_5,627,21,gramo,j,1339,142,gender_o,
124,group_5,686,4,caño,j,1293,143,stem_o,
124,group_5,707,12,poño,f,1496,144,distractor,
124,group_5,600,8,coca,j,1536,145,ident_a,
124,group_5,792,12,tofa,f,1555,146,distractor,
124,group_5,626,8,coca,j,1499,147,ident_a,
124,group_5,701,25,brada,j,2209,148,distractor,
124,group_5,798,10,mecheo,f,2545,149,distractor,
124,group_5,603,25,flada,j,1065,150,distractor,
124,group_5,671,10,miplea,f,1378,151,distractor,
124,group_5,710,13,cualarsa,f,1270,152,distractor,
124,group_5,604,12,coto,f,1413,153,ident_o,
124,group_5,732,13,cusbarno,f,1306,154,distractor,
124,group_5,675,12,coto,f,1362,155,ident_o,
124,group_5,625,32,rótulo,j,1356,156,ident_o,
124,group_5,623,1,etapa,j,1350,157,gender_a,
124,group_5,730,32,rótulo,j,1495,158,ident_o,
124,group_5,640,1,banda,j,1196,159,gender_a,
124,group_5,645,11,metro,j,1313,160,gender_o,
124,group_5,694,5,cijo,f,1460,161,distractor,
124,group_5,717,11,costo,j,1590,162,gender_o,
124,group_5,785,5,cina,f,1469,163,distractor,
124,group_5,784,44,bapo,f,1359,164,distractor,
124,group_5,743,43,bomo,f,1249,165,distractor,
124,group_5,757,44,volo,f,1276,166,distractor,
124,group_5,690,43,roga,f,1539,167,distractor,
124,group_5,797,14,cuba,j,1390,168,stem_o,
124,group_5,618,10,correo,j,1335,169,stem_a,
124,group_5,606,14,cubo,j,1574,170,stem_o,
124,group_5,655,10,correa,j,1124,171,stem_a,
124,group_5,707,19,gimnasia,j,1243,172,stem_o,
124,group_5,781,40,trimba,f,1485,173,distractor,
124,group_5,613,19,gimnasio,j,1020,174,stem_o,
124,group_5,646,40,tropso,f,1224,175,distractor,
124,group_5,609,2,rava,f,1250,176,distractor,
124,group_5,656,27,pausto,f,1325,177,distractor,
124,group_5,615,2,laño,f,1728,178,distractor,
124,group_5,797,27,pianta,f,1590,179,distractor,
124,group_5,639,24,pona,f,1354,180,distractor,
124,group_5,709,26,deuda,f,1325,181,gender_a,
124,group_5,696,24,tofo,f,1798,182,distractor,
124,group_5,692,26,plaza,j,1169,183,gender_a,
124,group_5,605,2,bazo,j,1647,184,ident_o,
124,group_5,640,22,jiplena,f,1284,185,distractor,
124,group_5,678,2,bazo,j,1202,186,ident_o,
124,group_5,685,22,biclero,f,1754,187,distractor,
124,group_5,625,41,tija,f,1545,188,distractor,
124,group_5,699,41,pozo,j,1393,189,gender_o,
124,group_5,603,41,buño,f,1203,190,distractor,
124,group_5,641,41,tubo,j,1111,191,gender_o,
124,group_5,735,34,pasino,f,1261,192,distractor,
124,group_5,692,36,selva,j,1453,193,gender_a,
124,group_5,776,34,madara,f,1674,194,distractor,
124,group_5,782,36,sigla,j,1515,195,gender_a,
124,group_5,743,35,leca,f,1513,196,distractor,
124,group_5,748,17,foco,j,1485,197,ident_o,
124,group_5,668,35,redo,f,1225,198,distractor,
124,group_5,617,17,foco,j,989,199,ident_o,
114,group_5,660,28,pulpa,j,1771,8,ident_a,
114,group_5,774,9,cochinilla,j,1566,9,stem_o,
114,group_5,609,28,pulpa,j,1463,10,ident_a,
114,group_5,799,9,cochinillo,f,2295,11,stem_o,
114,group_5,620,14,cuba,j,1287,12,stem_o,
114,group_5,604,45,praca,f,15398,13,distractor,
114,group_5,625,14,cubo,j,2424,14,stem_o,
114,group_5,762,45,stado,f,2503,15,distractor,
114,group_5,659,25,brada,j,2159,16,distractor,
114,group_5,752,6,pleito,j,1528,17,gender_o,
114,group_5,679,25,flada,f,2151,18,distractor,
114,group_5,612,6,cigarro,j,1359,19,gender_o,
114,group_5,771,12,tofa,f,10759,20,distractor,
114,group_5,622,43,bomo,f,1479,21,distractor,
114,group_5,734,12,poño,f,3864,22,distractor,
114,group_5,673,43,roga,f,10280,23,distractor,
114,group_5,702,35,redo,f,3646,24,distractor,
114,group_5,733,12,coto,f,6599,25,ident_o,
114,group_5,678,35,leca,f,2782,26,distractor,
114,group_5,794,12,coto,f,9369,27,ident_o,
114,group_5,612,20,fomero,f,12086,28,distractor,
114,group_5,645,40,trompo,j,2335,29,stem_a,
114,group_5,765,20,folena,f,10944,30,distractor,
114,group_5,635,40,trompa,j,1943,31,stem_a,
114,group_5,691,24,pona,f,2405,32,distractor,
114,group_5,651,25,plato,j,1833,33,stem_a,
114,group_5,762,24,tofo,f,2679,34,distractor,
114,group_5,780,25,plata,j,2104,35,stem_a,
114,group_5,713,1,circo,j,1455,36,gender_o,
114,group_5,775,2,rava,f,10128,37,distractor,
114,group_5,731,1,bando,j,2286,38,gender_o,
114,group_5,621,2,laño,f,2247,39,distractor,
114,group_5,712,8,coca,j,1383,40,ident_a,
114,group_5,743,1,lunda,f,2183,41,distractor,
114,group_5,694,8,coca,j,1431,42,ident_a,
114,group_5,715,1,fendo,f,1696,43,distractor,
114,group_5,682,11,cucto,f,1679,44,distractor,
114,group_5,619,17,rono,f,1335,45,distractor,
114,group_5,657,11,masta,f,15615,46,distractor,
114,group_5,731,17,gona,f,1703,47,distractor,
114,group_5,667,18,fonda,j,2464,48,ident_a,
114,group_5,611,19,fulnasio,f,3320,49,distractor,
114,group_5,655,18,fonda,j,1872,50,ident_a,
114,group_5,657,19,gosdasia,f,2448,51,distractor,
114,group_5,753,11,letra,j,1695,52,gender_a,
114,group_5,782,4,caña,j,1439,53,stem_o,
114,group_5,714,11,costa,j,1319,54,gender_a,
114,group_5,747,4,caño,j,2304,55,stem_o,
114,group_5,754,30,sasa,f,1918,56,distractor,
114,group_5,715,34,sátira,j,23904,57,stem_o,
114,group_5,664,30,tago,f,2039,58,distractor,
114,group_5,658,34,sátiro,j,1383,59,stem_o,
114,group_5,651,33,rimpa,f,12215,60,distractor,
114,group_5,735,14,miba,f,1951,61,distractor,
114,group_5,669,33,runzo,f,1743,62,distractor,
114,group_5,747,14,puco,f,2344,63,distractor,
114,group_5,740,6,arcada,j,2215,64,gender_a,
114,group_5,791,15,cuenco,j,1567,65,stem_a,
114,group_5,737,6,cigarra,j,1216,66,gender_a,
114,group_5,776,15,cuenca,j,1415,67,stem_a,
114,group_5,674,34,pasino,f,13671,68,distractor,
114,group_5,646,26,fraja,f,3343,69,distractor,
114,group_5,749,34,madara,f,2760,70,distractor,
114,group_5,641,26,glajo,f,1863,71,distractor,
114,group_5,636,23,loma,j,1791,72,ident_a,
114,group_5,774,29,pupila,j,1376,73,stem_o,
114,group_5,679,23,loma,j,1151,74,ident_a,
114,group_5,636,29,pupilo,j,1319,75,stem_o,
114,group_5,680,3,plavo,f,2399,76,distractor,
114,group_5,749,24,moda,j,1311,77,stem_o,
114,group_5,639,3,fraña,f,1887,78,distractor,
114,group_5,621,24,modo,j,1543,79,stem_o,
114,group_5,746,36,miedo,j,1344,80,gender_o,
114,group_5,792,4,pafo,f,1631,81,distractor,
114,group_5,649,36,siglo,j,1375,82,gender_o,
114,group_5,764,4,maba,f,1791,83,distractor,
114,group_5,604,41,tija,f,1576,84,distractor,
114,group_5,731,10,mecheo,j,2248,85,distractor,
114,group_5,716,41,buño,f,2687,86,distractor,
114,group_5,761,10,miplea,j,1511,87,distractor,
114,group_5,749,13,cusbarno,f,3095,88,distractor,
114,group_5,764,16,faira,f,1416,89,distractor,
114,group_5,763,13,cualarsa,f,2591,90,distractor,
114,group_5,773,16,fiemo,f,1576,91,distractor,
114,group_5,623,27,puerto,j,1271,92,ident_o,
114,group_5,728,23,fopa,f,1535,93,distractor,
114,group_5,600,27,puerto,j,1535,94,ident_o,
114,group_5,617,23,rono,f,1407,95,distractor,
114,group_5,603,35,seto,j,3392,96,stem_a,
114,group_5,792,20,gotero,j,1568,97,stem_a,
114,group_5,613,35,seta,j,1439,98,stem_a,
114,group_5,623,20,gotera,j,1336,99,stem_a,
114,group_5,731,21,sarta,j,1527,100,gender_a,
114,group_5,781,9,cotlericha,f,1992,101,distractor,
114,group_5,643,21,grama,j,18158,102,gender_a,
114,group_5,603,9,cotlecirro,f,1360,103,distractor,
114,group_5,623,26,cielo,j,1447,104,gender_o,
114,group_5,723,27,pausto,f,3855,105,distractor,
114,group_5,655,26,plazo,j,1391,106,gender_o,
114,group_5,660,27,pianta,f,1641,107,distractor,
114,group_5,640,29,mubala,f,1414,108,distractor,
114,group_5,668,17,foco,j,1360,109,ident_o,
114,group_5,653,29,murila,f,5983,110,distractor,
114,group_5,722,17,foco,j,1559,111,ident_o,
114,group_5,718,16,falda,j,1287,112,gender_a,
114,group_5,659,39,borbanta,f,12927,113,distractor,
114,group_5,790,16,fauna,j,1967,114,gender_a,
114,group_5,727,39,tonranto,f,3004,115,distractor,
114,group_5,614,38,tina,j,1323,116,ident_a,
114,group_5,767,16,abeto,j,1543,117,gender_o,
114,group_5,800,38,tina,j,1368,118,ident_a,
114,group_5,646,16,fauno,j,1312,119,gender_o,
114,group_5,695,44,bapo,f,1407,120,distractor,
114,group_5,685,3,braza,j,1775,121,ident_a,
114,group_5,680,44,volo,f,2983,122,distractor,
114,group_5,763,3,braza,j,11519,123,ident_a,
114,group_5,615,33,rumba,j,1432,124,ident_a,
114,group_5,748,28,pusbo,f,2976,125,distractor,
114,group_5,789,33,rumba,j,1527,126,ident_a,
114,group_5,654,28,punra,f,1487,127,distractor,
114,group_5,793,31,esfera,j,1544,128,gender_a,
114,group_5,613,2,bazo,j,1480,129,ident_o,
114,group_5,659,31,rodilla,j,1294,130,gender_a,
114,group_5,799,2,bazo,j,1448,131,ident_o,
114,group_5,698,10,correo,j,2378,132,stem_a,
114,group_5,689,5,cijo,f,1477,133,distractor,
114,group_5,639,10,correa,j,1503,134,stem_a,
114,group_5,751,5,cina,f,2110,135,distractor,
114,group_5,695,42,zaniro,f,1786,136,distractor,
114,group_5,739,40,trimba,f,15520,137,distractor,
114,group_5,718,42,farana,f,1886,138,distractor,
114,group_5,624,40,tropso,f,1295,139,distractor,
114,group_5,708,36,tifro,f,1351,140,distractor,
114,group_5,660,39,tormenta,j,1424,141,stem_o,
114,group_5,722,36,rifra,f,2056,142,distractor,
114,group_5,708,39,tormento,j,1647,143,stem_o,
114,group_5,780,1,etapa,j,1519,144,gender_a,
114,group_5,627,13,cuaderna,f,2327,145,ident_a,
114,group_5,774,1,banda,j,1416,146,gender_a,
114,group_5,604,13,cuaderna,f,1423,147,ident_a,
114,group_5,768,32,rótulo,j,1399,148,ident_o,
114,group_5,772,22,libreto,j,1687,149,ident_o,
114,group_5,662,32,rótulo,j,1464,150,ident_o,
114,group_5,681,22,libreto,j,1327,151,ident_o,
114,group_5,624,19,gimnasia,j,1311,152,stem_o,
114,group_5,772,37,tonaco,f,2039,153,distractor,
114,group_5,751,19,gimnasio,j,1518,154,stem_o,
114,group_5,684,37,dorina,f,1488,155,distractor,
114,group_5,791,15,caisco,f,1623,156,distractor,
114,group_5,693,38,ripa,f,2303,157,distractor,
114,group_5,779,15,ciesca,f,1495,158,distractor,
114,group_5,755,38,sica,f,1431,159,distractor,
114,group_5,602,41,tila,j,1535,160,gender_a,
114,group_5,605,8,pojo,f,1439,161,distractor,
114,group_5,724,41,tuba,j,1575,162,gender_a,
114,group_5,708,8,moga,f,1463,163,distractor,
114,group_5,764,21,prasa,f,1551,164,distractor,
114,group_5,764,37,solano,j,4423,165,ident_o,
114,group_5,600,21,crano,f,2151,166,distractor,
114,group_5,782,37,solano,j,1719,167,ident_o,
114,group_5,646,26,deuda,j,1503,168,gender_a,
114,group_5,733,30,ramo,j,1463,169,stem_a,
114,group_5,666,26,plaza,j,1208,170,gender_a,
114,group_5,699,30,rama,j,1487,171,stem_a,
114,group_5,655,36,selva,j,1207,172,gender_a,
114,group_5,646,42,zapato,j,1247,173,ident_o,
114,group_5,680,36,sigla,j,1399,174,gender_a,
114,group_5,766,42,zapato,j,1415,175,ident_o,
114,group_5,766,22,jiplena,f,1552,176,distractor,
114,group_5,615,6,cipicho,f,2976,177,distractor,
114,group_5,717,22,biclero,f,2319,178,distractor,
114,group_5,747,6,cidicha,f,1447,179,distractor,
114,group_5,687,21,trigo,j,1436,180,gender_o,
114,group_5,763,11,metro,j,1337,181,gender_o,
114,group_5,738,21,gramo,j,1281,182,gender_o,
114,group_5,669,11,costo,j,1329,183,gender_o,
114,group_5,771,5,cepo,j,1759,184,stem_a,
114,group_5,605,18,vindo,f,1327,185,distractor,
114,group_5,761,5,cepa,j,1479,186,stem_a,
114,group_5,688,18,lenda,f,1648,187,distractor,
114,group_5,694,7,cinto,j,1735,188,ident_o,
114,group_5,759,41,pozo,j,1624,189,gender_o,
114,group_5,742,7,cinto,j,1631,190,ident_o,
114,group_5,615,41,tubo,j,1584,191,gender_o,
114,group_5,680,31,dogalla,f,1464,192,distractor,
114,group_5,707,31,retazo,j,1639,193,gender_o,
114,group_5,753,31,sopallo,f,1592,194,distractor,
114,group_5,723,31,rodillo,j,1463,195,gender_o,
114,group_5,623,7,custa,f,1536,196,distractor,
114,group_5,679,32,dosumo,f,1520,197,distractor,
114,group_5,765,7,micto,f,1399,198,distractor,
114,group_5,709,32,doduza,f,1528,199,distractor,
99,group_5,670,11,letra,j,1419,8,gender_a,
99,group_5,695,38,tina,j,1392,9,ident_a,
99,group_5,622,11,costa,j,1286,10,gender_a,
99,group_5,734,38,tina,j,1657,11,ident_a,
99,group_5,653,33,runzo,j,1354,12,distractor,
99,group_5,622,28,pulpa,j,1345,13,ident_a,
99,group_5,608,33,rimpa,j,1482,14,distractor,
99,group_5,717,28,pulpa,j,1370,15,ident_a,
99,group_5,603,32,rótulo,j,1425,16,ident_o,
99,group_5,788,41,tila,j,1688,17,gender_a,
99,group_5,672,32,rótulo,j,1723,18,ident_o,
99,group_5,745,41,tuba,j,1496,19,gender_a,
99,group_5,664,45,praca,j,2014,20,distractor,
99,group_5,706,41,buño,f,2036,21,distractor,
99,group_5,697,45,stado,j,1705,22,distractor,
99,group_5,699,41,tija,j,1658,23,distractor,
99,group_5,701,21,crano,j,1955,24,distractor,
99,group_5,716,8,pojo,j,1846,25,distractor,
99,group_5,657,21,prasa,f,1613,26,distractor,
99,group_5,699,8,moga,f,1924,27,distractor,
99,group_5,776,3,braza,j,1579,28,ident_a,
99,group_5,795,15,cuenco,j,1921,29,stem_a,
99,group_5,770,3,braza,j,1975,30,ident_a,
99,group_5,662,15,cuenca,j,1786,31,stem_a,
99,group_5,618,26,cielo,j,1380,32,gender_o,
99,group_5,753,25,plato,j,1798,33,stem_a,
99,group_5,643,26,plazo,j,1596,34,gender_o,
99,group_5,760,25,plata,j,1555,35,stem_a,
99,group_5,756,41,pozo,j,1372,36,gender_o,
99,group_5,673,30,ramo,j,1443,37,stem_a,
99,group_5,691,41,tubo,j,1360,38,gender_o,
99,group_5,613,30,rama,j,1587,39,stem_a,
99,group_5,600,3,plavo,f,1894,40,distractor,
99,group_5,608,31,esfera,j,1441,41,gender_a,
99,group_5,741,3,fraña,f,1933,42,distractor,
99,group_5,695,31,rodilla,j,2073,43,gender_a,
99,group_5,686,25,brada,f,2155,44,distractor,
99,group_5,672,44,bapo,f,1661,45,distractor,
99,group_5,640,25,flada,j,1823,46,distractor,
99,group_5,728,44,volo,j,1428,47,distractor,
99,group_5,608,10,correo,j,1307,48,stem_a,
99,group_5,657,5,cepo,f,1545,49,stem_a,
99,group_5,796,10,correa,j,1558,50,stem_a,
99,group_5,769,5,cepa,f,1951,51,stem_a,
99,group_5,758,9,cotlericha,f,3031,52,distractor,
99,group_5,756,35,redo,j,1764,53,distractor,
99,group_5,651,9,cotlecirro,f,1857,54,distractor,
99,group_5,695,35,leca,f,1554,55,distractor,
99,group_5,655,12,tofa,f,1729,56,distractor,
99,group_5,737,23,loma,j,1892,57,ident_a,
99,group_5,608,12,poño,f,1737,58,distractor,
99,group_5,767,23,loma,j,1646,59,ident_a,
99,group_5,696,19,gosdasia,f,1791,60,distractor,
99,group_5,721,1,circo,j,1714,61,gender_o,
99,group_5,782,19,fulnasio,f,1815,62,distractor,
99,group_5,714,1,bando,f,1739,63,gender_o,
99,group_5,780,22,libreto,f,2448,64,ident_o,
99,group_5,667,13,cuaderna,j,1732,65,ident_a,
99,group_5,705,22,libreto,f,1779,66,ident_o,
99,group_5,739,13,cuaderna,j,1921,67,ident_a,
99,group_5,696,6,pleito,j,1516,68,gender_o,
99,group_5,616,29,mubala,f,1453,69,distractor,
99,group_5,707,6,cigarro,j,1540,70,gender_o,
99,group_5,795,29,murila,f,1603,71,distractor,
99,group_5,727,36,miedo,j,1516,72,gender_o,
99,group_5,623,39,tonranto,f,1946,73,distractor,
99,group_5,612,36,siglo,j,1711,74,gender_o,
99,group_5,651,39,borbanta,f,1654,75,distractor,
99,group_5,670,10,miplea,f,1612,76,distractor,
99,group_5,750,28,pusbo,j,1666,77,distractor,
99,group_5,798,10,mecheo,f,1640,78,distractor,
99,group_5,781,28,punra,f,1602,79,distractor,
99,group_5,608,4,caña,j,2398,80,stem_o,
99,group_5,621,40,tropso,f,2244,81,distractor,
99,group_5,700,4,caño,j,1798,82,stem_o,
99,group_5,726,40,trimba,j,1628,83,distractor,
99,group_5,757,14,cuba,j,1615,84,stem_o,
99,group_5,616,24,tofo,f,2496,85,distractor,
99,group_5,665,14,cubo,j,1448,86,stem_o,
99,group_5,751,24,pona,f,1942,87,distractor,
99,group_5,713,4,pafo,f,1566,88,distractor,
99,group_5,662,27,pausto,j,1702,89,distractor,
99,group_5,721,4,maba,f,1608,90,distractor,
99,group_5,640,27,pianta,j,1376,91,distractor,
99,group_5,796,16,falda,j,1757,92,gender_a,
99,group_5,603,14,puco,f,1391,93,distractor,
99,group_5,685,16,fauna,j,1521,94,gender_a,
99,group_5,632,14,miba,f,1531,95,distractor,
99,group_5,733,17,foco,j,1425,96,ident_o,
99,group_5,749,37,tonaco,f,1534,97,distractor,
99,group_5,618,17,foco,j,1491,98,ident_o,
99,group_5,694,37,dorina,f,1842,99,distractor,
99,group_5,627,18,lenda,j,1480,100,distractor,
99,group_5,742,15,ciesca,f,1740,101,distractor,
99,group_5,782,18,vindo,j,1698,102,distractor,
99,group_5,618,15,caisco,f,1403,103,distractor,
99,group_5,701,1,etapa,j,1442,104,gender_a,
99,group_5,637,43,bomo,j,1557,105,distractor,
99,group_5,679,1,banda,j,1403,106,gender_a,
99,group_5,708,43,roga,f,1467,107,distractor,
99,group_5,688,40,trompo,j,1480,108,stem_a,
99,group_5,671,9,cochinilla,j,1605,109,stem_o,
99,group_5,655,40,trompa,j,1474,110,stem_a,
99,group_5,615,9,cochinillo,j,1235,111,stem_o,
99,group_5,706,18,fonda,j,2180,112,ident_a,
99,group_5,736,20,fomero,f,1901,113,distractor,
99,group_5,696,18,fonda,j,1534,114,ident_a,
99,group_5,775,20,folena,f,1978,115,distractor,
99,group_5,611,33,rumba,j,2453,116,ident_a,
99,group_5,694,2,laño,f,1781,117,distractor,
99,group_5,666,33,rumba,j,1626,118,ident_a,
99,group_5,744,2,rava,f,1579,119,distractor,
99,group_5,623,6,cipicho,f,1624,120,distractor,
99,group_5,749,26,glajo,j,1651,121,distractor,
99,group_5,652,6,cidicha,f,1823,122,distractor,
99,group_5,710,26,fraja,j,1471,123,distractor,
99,group_5,765,31,retazo,j,1702,124,gender_o,
99,group_5,705,35,seto,j,1555,125,stem_a,
99,group_5,623,31,rodillo,j,1401,126,gender_o,
99,group_5,786,35,seta,j,1525,127,stem_a,
99,group_5,772,21,trigo,j,1703,128,gender_o,
99,group_5,755,36,rifra,f,1632,129,distractor,
99,group_5,696,21,gramo,j,1510,130,gender_o,
99,group_5,769,36,tifro,f,1621,131,distractor,
99,group_5,775,30,tago,j,1500,132,distractor,
99,group_5,644,39,tormenta,j,1393,133,stem_o,
99,group_5,669,30,sasa,f,1505,134,distractor,
99,group_5,718,39,tormento,j,1537,135,stem_o,
99,group_5,725,11,masta,j,2017,136,distractor,
99,group_5,610,38,ripa,f,1870,137,distractor,
99,group_5,692,11,cucto,f,1777,138,distractor,
99,group_5,650,38,sica,f,1930,139,distractor,
99,group_5,750,27,puerto,j,1474,140,ident_o,
99,group_5,760,16,abeto,j,1793,141,gender_o,
99,group_5,761,27,puerto,j,1437,142,ident_o,
99,group_5,711,16,fauno,j,1522,143,gender_o,
99,group_5,740,23,fopa,f,1645,144,distractor,
99,group_5,679,17,rono,f,1870,145,distractor,
99,group_5,614,23,rono,f,1331,146,distractor,
99,group_5,696,17,gona,j,2108,147,distractor,
99,group_5,746,5,cijo,f,1685,148,distractor,
99,group_5,669,6,arcada,j,1668,149,gender_a,
99,group_5,786,5,cina,j,1608,150,distractor,
99,group_5,786,6,cigarra,j,1495,151,gender_a,
99,group_5,752,16,fiemo,f,1770,152,distractor,
99,group_5,638,1,lunda,f,1584,153,distractor,
99,group_5,625,16,faira,j,1343,154,distractor,
99,group_5,777,1,fendo,f,1540,155,distractor,
99,group_5,786,34,sátira,j,1984,156,stem_o,
99,group_5,796,13,cusbarno,f,1608,157,distractor,
99,group_5,647,34,sátiro,j,1425,158,stem_o,
99,group_5,770,13,cualarsa,j,2292,159,distractor,
99,group_5,666,7,micto,j,1492,160,distractor,
99,group_5,666,36,selva,j,1450,161,gender_a,
99,group_5,779,7,custa,j,1918,162,distractor,
99,group_5,717,36,sigla,j,1531,163,gender_a,
99,group_5,694,20,gotero,j,1651,164,stem_a,
99,group_5,651,8,coca,j,1363,165,ident_a,
99,group_5,646,20,gotera,j,1479,166,stem_a,
99,group_5,610,8,coca,j,1241,167,ident_a,
99,group_5,793,22,jiplena,f,1808,168,distractor,
99,group_5,656,2,bazo,f,1760,169,ident_o,
99,group_5,700,22,biclero,f,2212,170,distractor,
99,group_5,677,2,bazo,f,1555,171,ident_o,
99,group_5,694,26,deuda,j,1419,172,gender_a,
99,group_5,636,42,zaniro,f,1466,173,distractor,
99,group_5,765,26,plaza,j,1448,174,gender_a,
99,group_5,708,42,farana,f,1799,175,distractor,
99,group_5,645,21,sarta,j,1692,176,gender_a,
99,group_5,601,37,solano,f,2779,177,ident_o,
99,group_5,621,21,grama,f,1590,178,gender_a,
99,group_5,736,37,solano,f,1398,179,ident_o,
99,group_5,649,24,moda,j,1388,180,stem_o,
99,group_5,688,42,zapato,j,1431,181,ident_o,
99,group_5,662,24,modo,j,1470,182,stem_o,
99,group_5,666,42,zapato,j,1343,183,ident_o,
99,group_5,602,32,doduza,f,1390,184,distractor,
99,group_5,633,11,metro,j,1301,185,gender_o,
99,group_5,704,32,dosumo,f,1397,186,distractor,
99,group_5,663,11,costo,j,1330,187,gender_o,
99,group_5,778,31,sopallo,f,1558,188,distractor,
99,group_5,747,19,gimnasia,j,1584,189,stem_o,
99,group_5,776,31,dogalla,j,1961,190,distractor,
99,group_5,654,19,gimnasio,j,1470,191,stem_o,
99,group_5,703,29,pupila,j,1654,192,stem_o,
99,group_5,604,34,pasino,f,1551,193,distractor,
99,group_5,704,29,pupilo,j,1471,194,stem_o,
99,group_5,779,34,madara,f,1933,195,distractor,
99,group_5,606,12,coto,f,1766,196,ident_o,
99,group_5,738,7,cinto,f,1645,197,ident_o,
99,group_5,777,12,coto,f,1651,198,ident_o,
99,group_5,667,7,cinto,f,1625,199,ident_o,
84,group_5,667,6,cipicho,f,1757,8,distractor,
84,group_5,717,11,letra,j,1429,9,gender_a,
84,group_5,667,6,cidicha,f,1613,10,distractor,
84,group_5,783,11,costa,j,1440,11,gender_a,
84,group_5,601,8,pojo,f,1568,12,distractor,
84,group_5,623,2,laño,f,1658,13,distractor,
84,group_5,632,8,moga,f,1479,14,distractor,
84,group_5,750,2,rava,f,2370,15,distractor,
84,group_5,752,15,caisco,f,1485,16,distractor,
84,group_5,787,41,buño,f,1436,17,distractor,
84,group_5,610,15,ciesca,f,1381,18,distractor,
84,group_5,738,41,tija,f,1336,19,distractor,
84,group_5,776,27,pianta,f,1625,20,distractor,
84,group_5,787,21,trigo,j,1417,21,gender_o,
84,group_5,725,27,pausto,f,1513,22,distractor,
84,group_5,721,21,gramo,j,1296,23,gender_o,
84,group_5,703,29,pupila,j,1282,24,stem_o,
84,group_5,644,42,zaniro,f,1995,25,distractor,
84,group_5,647,29,pupilo,j,1362,26,stem_o,
84,group_5,658,42,farana,f,2176,27,distractor,
84,group_5,763,1,etapa,j,1348,28,gender_a,
84,group_5,731,17,foco,j,1414,29,ident_o,
84,group_5,702,1,banda,j,1346,30,gender_a,
84,group_5,603,17,foco,j,1097,31,ident_o,
84,group_5,671,45,praca,f,1441,32,distractor,
84,group_5,684,20,folena,f,1336,33,distractor,
84,group_5,643,45,stado,f,1344,34,distractor,
84,group_5,716,20,fomero,f,1827,35,distractor,
84,group_5,662,38,tina,j,1323,36,ident_a,
84,group_5,793,21,sarta,j,2100,37,gender_a,
84,group_5,765,38,tina,j,1492,38,ident_a,
84,group_5,626,21,grama,j,1189,39,gender_a,
84,group_5,685,25,flada,f,1680,40,distractor,
84,group_5,730,1,lunda,f,1311,41,distractor,
84,group_5,789,25,brada,f,1461,42,distractor,
84,group_5,618,1,fendo,f,1247,43,distractor,
84,group_5,617,31,retazo,j,1443,44,gender_o,
84,group_5,617,33,rimpa,f,1420,45,distractor,
84,group_5,658,31,rodillo,j,1392,46,gender_o,
84,group_5,725,33,runzo,f,1445,47,distractor,
84,group_5,788,20,gotero,j,1448,48,stem_a,
84,group_5,625,37,solano,f,3170,49,ident_o,
84,group_5,627,20,gotera,j,1287,50,stem_a,
84,group_5,637,37,solano,f,1883,51,ident_o,
84,group_5,654,29,murila,f,2464,52,distractor,
84,group_5,732,35,seto,j,1570,53,stem_a,
84,group_5,792,29,mubala,f,1699,54,distractor,
84,group_5,669,35,seta,j,1327,55,stem_a,
84,group_5,711,31,sopallo,f,2606,56,distractor,
84,group_5,668,41,tila,j,1312,57,gender_a,
84,group_5,602,31,dogalla,f,1610,58,distractor,
84,group_5,637,41,tuba,j,1736,59,gender_a,
84,group_5,679,4,maba,f,1641,60,distractor,
84,group_5,621,16,falda,j,1275,61,gender_a,
84,group_5,660,4,pafo,f,1401,62,distractor,
84,group_5,742,16,fauna,j,1411,63,gender_a,
84,group_5,603,21,prasa,f,1285,64,distractor,
84,group_5,612,23,loma,j,1223,65,ident_a,
84,group_5,730,21,crano,f,1638,66,distractor,
84,group_5,612,23,loma,j,1192,67,ident_a,
84,group_5,666,28,pulpa,j,1375,68,ident_a,
84,group_5,775,2,bazo,j,1832,69,ident_o,
84,group_5,677,28,pulpa,j,1237,70,ident_a,
84,group_5,746,2,bazo,j,1251,71,ident_o,
84,group_5,610,31,esfera,j,1196,72,gender_a,
84,group_5,614,17,gona,f,1299,73,distractor,
84,group_5,609,31,rodilla,j,1309,74,gender_a,
84,group_5,682,17,rono,f,1487,75,distractor,
84,group_5,627,7,custa,f,1309,76,distractor,
84,group_5,733,38,ripa,f,1416,77,distractor,
84,group_5,625,7,micto,f,1278,78,distractor,
84,group_5,608,38,sica,f,1397,79,distractor,
84,group_5,696,19,gimnasia,j,1539,80,stem_o,
84,group_5,750,6,arcada,j,1521,81,gender_a,
84,group_5,664,19,gimnasio,j,1179,82,stem_o,
84,group_5,693,6,cigarra,j,1380,83,gender_a,
84,group_5,689,43,bomo,f,1363,84,distractor,
84,group_5,638,41,pozo,j,1293,85,gender_o,
84,group_5,740,43,roga,f,1512,86,distractor,
84,group_5,710,41,tubo,j,1430,87,gender_o,
84,group_5,768,10,mecheo,f,1504,88,distractor,
84,group_5,722,13,cusbarno,f,2013,89,distractor,
84,group_5,783,10,miplea,f,1632,90,distractor,
84,group_5,753,13,cualarsa,f,1905,91,distractor,
84,group_5,659,3,braza,j,1315,92,ident_a,
84,group_5,767,10,correo,j,1505,93,stem_a,
84,group_5,686,3,braza,j,1411,94,ident_a,
84,group_5,769,10,correa,j,1328,95,stem_a,
84,group_5,731,14,cuba,j,1342,96,stem_o,
84,group_5,796,25,plato,j,1477,97,stem_a,
84,group_5,789,14,cubo,j,1205,98,stem_o,
84,group_5,764,25,plata,j,1234,99,stem_a,
84,group_5,680,40,trompo,j,1256,100,stem_a,
84,group_5,701,7,cinto,j,1293,101,ident_o,
84,group_5,631,40,trompa,j,1135,102,stem_a,
84,group_5,656,7,cinto,j,1198,103,ident_o,
84,group_5,756,9,cotlericha,f,1483,104,distractor,
84,group_5,768,23,fopa,f,1434,105,distractor,
84,group_5,658,9,cotlecirro,f,1266,106,distractor,
84,group_5,688,23,rono,f,1253,107,distractor,
84,group_5,685,37,dorina,f,1275,108,distractor,
84,group_5,758,32,dosumo,f,1509,109,distractor,
84,group_5,721,37,tonaco,f,1272,110,distractor,
84,group_5,707,32,doduza,f,1284,111,distractor,
84,group_5,605,35,redo,f,1137,112,distractor,
84,group_5,676,42,zapato,j,1229,113,ident_o,
84,group_5,664,35,leca,f,1242,114,distractor,
84,group_5,711,42,zapato,j,1225,115,ident_o,
84,group_5,722,40,tropso,f,1355,116,distractor,
84,group_5,726,11,metro,j,1353,117,gender_o,
84,group_5,618,40,trimba,f,1222,118,distractor,
84,group_5,638,11,costo,j,1424,119,gender_o,
84,group_5,767,27,puerto,j,1486,120,ident_o,
84,group_5,769,24,moda,j,1296,121,stem_o,
84,group_5,639,27,puerto,j,1314,122,ident_o,
84,group_5,624,24,modo,j,1122,123,stem_o,
84,group_5,777,3,fraña,f,1369,124,distractor,
84,group_5,753,34,madara,f,1588,125,distractor,
84,group_5,765,3,plavo,f,1565,126,distractor,
84,group_5,728,34,pasino,f,1597,127,distractor,
84,group_5,661,16,abeto,j,1840,128,gender_o,
84,group_5,669,36,miedo,j,1188,129,gender_o,
84,group_5,668,16,fauno,j,1270,130,gender_o,
84,group_5,624,36,siglo,j,1121,131,gender_o,
84,group_5,751,16,fiemo,f,1371,132,distractor,
84,group_5,620,26,glajo,f,2170,133,distractor,
84,group_5,715,16,faira,f,1330,134,distractor,
84,group_5,713,26,fraja,f,1310,135,distractor,
84,group_5,748,19,gosdasia,f,1326,136,distractor,
84,group_5,788,18,vindo,f,1388,137,distractor,
84,group_5,606,19,fulnasio,f,1116,138,distractor,
84,group_5,734,18,lenda,f,1383,139,distractor,
84,group_5,750,33,rumba,f,1314,140,ident_a,
84,group_5,692,39,borbanta,f,1434,141,distractor,
84,group_5,705,33,rumba,f,1142,142,ident_a,
84,group_5,773,39,tonranto,f,2311,143,distractor,
84,group_5,652,26,deuda,j,1469,144,gender_a,
84,group_5,790,8,coca,j,1289,145,ident_a,
84,group_5,754,26,plaza,j,1258,146,gender_a,
84,group_5,601,8,coca,j,960,147,ident_a,
84,group_5,695,5,cepo,f,1968,148,stem_a,
84,group_5,627,5,cijo,f,1284,149,distractor,
84,group_5,750,5,cepa,j,1751,150,stem_a,
84,group_5,725,5,cina,f,1436,151,distractor,
84,group_5,724,22,libreto,j,1304,152,ident_o,
84,group_5,670,44,bapo,f,1415,153,distractor,
84,group_5,794,22,libreto,j,1391,154,ident_o,
84,group_5,691,44,volo,j,1235,155,distractor,
84,group_5,717,26,cielo,j,1257,156,gender_o,
84,group_5,740,9,cochinilla,j,1325,157,stem_o,
84,group_5,603,26,plazo,j,1180,158,gender_o,
84,group_5,646,9,cochinillo,j,1465,159,stem_o,
84,group_5,758,6,pleito,j,4521,160,gender_o,
84,group_5,624,36,selva,j,1079,161,gender_a,
84,group_5,660,6,cigarro,j,1038,162,gender_o,
84,group_5,758,36,sigla,j,1239,163,gender_a,
84,group_5,692,4,caña,j,1841,164,stem_o,
84,group_5,629,22,jiplena,f,1263,165,distractor,
84,group_5,734,4,caño,j,1404,166,stem_o,
84,group_5,657,22,biclero,f,1408,167,distractor,
84,group_5,723,24,tofo,f,1499,168,distractor,
84,group_5,740,30,tago,f,1541,169,distractor,
84,group_5,604,24,pona,f,1328,170,distractor,
84,group_5,702,30,sasa,f,1270,171,distractor,
84,group_5,661,36,rifra,f,1467,172,distractor,
84,group_5,715,28,pusbo,f,1391,173,distractor,
84,group_5,694,36,tifro,f,1357,174,distractor,
84,group_5,670,28,punra,f,1155,175,distractor,
84,group_5,781,15,cuenco,f,1193,176,stem_a,
84,group_5,684,30,ramo,j,1297,177,stem_a,
84,group_5,782,15,cuenca,j,1319,178,stem_a,
84,group_5,794,30,rama,j,1385,179,stem_a,
84,group_5,737,11,cucto,f,1525,180,distractor,
84,group_5,725,1,circo,j,1314,181,gender_o,
84,group_5,637,11,masta,f,1324,182,distractor,
84,group_5,776,1,bando,j,1483,183,gender_o,
84,group_5,709,18,fonda,j,1435,184,ident_a,
84,group_5,773,12,tofa,f,1429,185,distractor,
84,group_5,762,18,fonda,j,1444,186,ident_a,
84,group_5,786,12,poño,f,1549,187,distractor,
84,group_5,782,14,miba,f,1558,188,distractor,
84,group_5,750,34,sátira,j,1453,189,stem_o,
84,group_5,640,14,puco,f,1237,190,distractor,
84,group_5,673,34,sátiro,j,1398,191,stem_o,
84,group_5,603,12,coto,j,2829,192,ident_o,
84,group_5,712,32,rótulo,j,1315,193,ident_o,
84,group_5,730,12,coto,j,1528,194,ident_o,
84,group_5,771,32,rótulo,j,1446,195,ident_o,
84,group_5,646,13,cuaderna,f,1869,196,ident_a,
84,group_5,646,39,tormenta,j,1411,197,stem_o,
84,group_5,784,13,cuaderna,f,1612,198,ident_a,
84,group_5,685,39,tormento,j,1823,199,stem_o,
104,group_5,614,41,tija,f,2011,8,distractor,
104,group_5,750,43,bomo,f,1582,9,distractor,
104,group_5,711,41,buño,f,1476,10,distractor,
104,group_5,658,43,roga,f,1456,11,distractor,
104,group_5,699,39,tonranto,f,1663,12,distractor,
104,group_5,765,14,puco,f,1539,13,distractor,
104,group_5,612,39,borbanta,f,1458,14,distractor,
104,group_5,663,14,miba,f,1332,15,distractor,
104,group_5,706,40,trimba,f,1258,16,distractor,
104,group_5,754,13,cusbarno,f,1374,17,distractor,
104,group_5,683,40,tropso,f,1283,18,distractor,
104,group_5,604,13,cualarsa,f,1287,19,distractor,
104,group_5,768,14,cuba,j,1483,20,stem_o,
104,group_5,774,2,bazo,j,1456,21,ident_o,
104,group_5,650,14,cubo,j,1433,22,stem_o,
104,group_5,602,2,bazo,j,1381,23,ident_o,
104,group_5,640,12,tofa,f,1538,24,distractor,
104,group_5,695,7,custa,f,1528,25,distractor,
104,group_5,608,12,poño,f,1891,26,distractor,
104,group_5,794,7,micto,f,1769,27,distractor,
104,group_5,772,36,tifro,f,1486,28,distractor,
104,group_5,760,30,sasa,f,1256,29,distractor,
104,group_5,769,36,rifra,f,1308,30,distractor,
104,group_5,733,30,tago,f,1753,31,distractor,
104,group_5,654,10,correo,j,1130,32,stem_a,
104,group_5,600,40,trompo,j,1034,33,stem_a,
104,group_5,701,10,correa,j,1262,34,stem_a,
104,group_5,710,40,trompa,j,1095,35,stem_a,
104,group_5,689,6,arcada,j,1183,36,gender_a,
104,group_5,689,17,foco,j,1113,37,ident_o,
104,group_5,741,6,cigarra,j,1392,38,gender_a,
104,group_5,697,17,foco,j,1185,39,ident_o,
104,group_5,794,34,madara,f,1384,40,distractor,
104,group_5,707,5,cina,f,1388,41,distractor,
104,group_5,731,34,pasino,f,1217,42,distractor,
104,group_5,739,5,cijo,f,1252,43,distractor,
104,group_5,757,21,crano,f,1345,44,distractor,
104,group_5,615,36,miedo,j,1102,45,gender_o,
104,group_5,757,21,prasa,f,1316,46,distractor,
104,group_5,641,36,siglo,j,1156,47,gender_o,
104,group_5,689,18,lenda,f,1415,48,distractor,
104,group_5,798,11,cucto,f,1289,49,distractor,
104,group_5,618,18,vindo,f,1094,50,distractor,
104,group_5,770,11,masta,f,1222,51,distractor,
104,group_5,682,26,deuda,j,1224,52,gender_a,
104,group_5,766,35,seto,f,2826,53,stem_a,
104,group_5,704,26,plaza,j,1174,54,gender_a,
104,group_5,798,35,seta,j,1478,55,stem_a,
104,group_5,656,16,abeto,j,1382,56,gender_o,
104,group_5,649,8,coca,j,1094,57,ident_a,
104,group_5,675,16,fauno,j,1145,58,gender_o,
104,group_5,712,8,coca,j,1083,59,ident_a,
104,group_5,601,25,plato,j,1035,60,stem_a,
104,group_5,657,44,bapo,f,1351,61,distractor,
104,group_5,650,25,plata,j,1161,62,stem_a,
104,group_5,643,44,volo,f,1914,63,distractor,
104,group_5,707,28,pusbo,f,1189,64,distractor,
104,group_5,652,9,cochinilla,j,1193,65,stem_o,
104,group_5,614,28,punra,f,1137,66,distractor,
104,group_5,657,9,cochinillo,j,1349,67,stem_o,
104,group_5,671,15,caisco,f,3340,68,distractor,
104,group_5,672,17,rono,f,1201,69,distractor,
104,group_5,765,15,ciesca,f,1255,70,distractor,
104,group_5,746,17,gona,f,1321,71,distractor,
104,group_5,750,32,rótulo,j,1249,72,ident_o,
104,group_5,756,23,loma,j,1396,73,ident_a,
104,group_5,747,32,rótulo,j,1194,74,ident_o,
104,group_5,632,23,loma,j,1211,75,ident_a,
104,group_5,725,13,cuaderna,f,1672,76,ident_a,
104,group_5,789,12,coto,j,1378,77,ident_o,
104,group_5,736,13,cuaderna,f,1496,78,ident_a,
104,group_5,681,12,coto,j,1246,79,ident_o,
104,group_5,699,1,circo,j,1214,80,gender_o,
104,group_5,781,19,gimnasia,j,1438,81,stem_o,
104,group_5,788,1,bando,j,1467,82,gender_o,
104,group_5,637,19,gimnasio,j,1061,83,stem_o,
104,group_5,708,27,pausto,f,1315,84,distractor,
104,group_5,766,32,doduza,f,1242,85,distractor,
104,group_5,774,27,pianta,f,1481,86,distractor,
104,group_5,785,32,dosumo,f,1811,87,distractor,
104,group_5,713,37,tonaco,f,1465,88,distractor,
104,group_5,751,1,lunda,f,1236,89,distractor,
104,group_5,770,37,dorina,f,1368,90,distractor,
104,group_5,600,1,fendo,f,1025,91,distractor,
104,group_5,734,9,cotlecirro,f,1193,92,distractor,
104,group_5,613,24,tofo,f,1122,93,distractor,
104,group_5,794,9,cotlericha,f,1221,94,distractor,
104,group_5,645,24,pona,f,1055,95,distractor,
104,group_5,719,38,tina,j,1801,96,ident_a,
104,group_5,710,28,pulpa,j,1178,97,ident_a,
104,group_5,695,38,tina,j,1121,98,ident_a,
104,group_5,651,28,pulpa,j,1004,99,ident_a,
104,group_5,747,3,plavo,f,1433,100,distractor,
104,group_5,661,30,ramo,j,1162,101,stem_a,
104,group_5,655,3,fraña,f,1149,102,distractor,
104,group_5,793,30,rama,j,1286,103,stem_a,
104,group_5,717,5,cepo,f,1383,104,stem_a,
104,group_5,655,23,rono,f,1237,105,distractor,
104,group_5,615,5,cepa,j,1188,106,stem_a,
104,group_5,680,23,fopa,f,1218,107,distractor,
104,group_5,797,25,flada,f,1360,108,distractor,
104,group_5,694,26,cielo,j,1204,109,gender_o,
104,group_5,662,25,brada,f,1243,110,distractor,
104,group_5,638,26,plazo,j,1129,111,gender_o,
104,group_5,770,16,faira,f,1327,112,distractor,
104,group_5,741,20,fomero,f,1245,113,distractor,
104,group_5,720,16,fiemo,f,1161,114,distractor,
104,group_5,772,20,folena,f,1231,115,distractor,
104,group_5,681,18,fonda,j,1297,116,ident_a,
104,group_5,640,45,praca,f,1145,117,distractor,
104,group_5,674,18,fonda,f,1143,118,ident_a,
104,group_5,692,45,stado,f,2395,119,distractor,
104,group_5,771,34,sátira,j,1280,120,stem_o,
104,group_5,708,31,retazo,j,1419,121,gender_o,
104,group_5,647,34,sátiro,f,2119,122,stem_o,
104,group_5,764,31,rodillo,j,1376,123,gender_o,
104,group_5,780,11,metro,j,1221,124,gender_o,
104,group_5,777,31,sopallo,f,1252,125,distractor,
104,group_5,682,11,costo,j,1317,126,gender_o,
104,group_5,715,31,dogalla,f,1666,127,distractor,
104,group_5,712,3,braza,j,1456,128,ident_a,
104,group_5,716,33,runzo,f,1262,129,distractor,
104,group_5,604,3,braza,j,1098,130,ident_a,
104,group_5,786,33,rimpa,f,1326,131,distractor,
104,group_5,648,41,pozo,j,1216,132,gender_o,
104,group_5,640,27,puerto,j,1208,133,ident_o,
104,group_5,706,41,tubo,j,1210,134,gender_o,
104,group_5,671,27,puerto,j,1062,135,ident_o,
104,group_5,602,2,rava,f,1210,136,distractor,
104,group_5,660,24,moda,j,1101,137,stem_o,
104,group_5,759,2,laño,f,1324,138,distractor,
104,group_5,713,24,modo,j,1468,139,stem_o,
104,group_5,676,10,mecheo,f,2152,140,distractor,
104,group_5,747,16,falda,j,1208,141,gender_a,
104,group_5,750,10,miplea,f,1363,142,distractor,
104,group_5,729,16,fauna,j,1183,143,gender_a,
104,group_5,666,29,murila,f,1646,144,distractor,
104,group_5,711,26,fraja,f,1299,145,distractor,
104,group_5,662,29,mubala,f,1080,146,distractor,
104,group_5,683,26,glajo,f,1130,147,distractor,
104,group_5,769,42,zapato,j,1254,148,ident_o,
104,group_5,744,19,fulnasio,f,1390,149,distractor,
104,group_5,623,42,zapato,j,1000,150,ident_o,
104,group_5,782,19,gosdasia,f,1323,151,distractor,
104,group_5,642,38,sica,f,1308,152,distractor,
104,group_5,739,41,tila,j,2727,153,gender_a,
104,group_5,625,38,ripa,f,1173,154,distractor,
104,group_5,763,41,tuba,j,1330,155,gender_a,
104,group_5,735,42,farana,f,1319,156,distractor,
104,group_5,600,6,pleito,j,1166,157,gender_o,
104,group_5,764,42,zaniro,f,1357,158,distractor,
104,group_5,646,6,cigarro,j,1147,159,gender_o,
104,group_5,630,31,esfera,j,1200,160,gender_a,
104,group_5,734,20,gotero,j,1469,161,stem_a,
104,group_5,613,31,rodilla,j,1711,162,gender_a,
104,group_5,724,20,gotera,j,1159,163,stem_a,
104,group_5,800,8,pojo,f,1366,164,distractor,
104,group_5,693,22,jiplena,f,1253,165,distractor,
104,group_5,646,8,moga,f,1097,166,distractor,
104,group_5,729,22,biclero,f,1518,167,distractor,
104,group_5,634,4,caña,j,1151,168,stem_o,
104,group_5,726,6,cidicha,f,1325,169,distractor,
104,group_5,696,4,caño,j,1167,170,stem_o,
104,group_5,703,6,cipicho,f,1233,171,distractor,
104,group_5,624,1,etapa,j,1241,172,gender_a,
104,group_5,719,36,selva,j,1192,173,gender_a,
104,group_5,713,1,banda,j,1090,174,gender_a,
104,group_5,711,36,sigla,f,1506,175,gender_a,
104,group_5,742,21,trigo,j,1256,176,gender_o,
104,group_5,608,15,cuenco,j,1232,177,stem_a,
104,group_5,715,21,gramo,j,1146,178,gender_o,
104,group_5,618,15,cuenca,j,1382,179,stem_a,
104,group_5,746,7,cinto,j,1869,180,ident_o,
104,group_5,800,21,sarta,j,1899,181,gender_a,
104,group_5,664,7,cinto,j,1139,182,ident_o,
104,group_5,800,21,grama,f,2363,183,gender_a,
104,group_5,654,37,solano,f,1492,184,ident_o,
104,group_5,639,11,letra,j,1122,185,gender_a,
104,group_5,708,37,solano,j,1560,186,ident_o,
104,group_5,778,11,costa,j,1424,187,gender_a,
104,group_5,700,4,maba,f,1383,188,distractor,
104,group_5,779,35,leca,f,1373,189,distractor,
104,group_5,761,4,pafo,f,1391,190,distractor,
104,group_5,699,35,redo,f,2241,191,distractor,
104,group_5,617,22,libreto,j,1573,192,ident_o,
104,group_5,680,39,tormenta,j,1087,193,stem_o,
104,group_5,744,22,libreto,j,1243,194,ident_o,
104,group_5,758,39,tormento,j,1306,195,stem_o,
104,group_5,633,33,rumba,j,1281,196,ident_a,
104,group_5,618,29,pupila,j,1120,197,stem_o,
104,group_5,743,33,rumba,j,1238,198,ident_a,
104,group_5,774,29,pupilo,j,1210,199,stem_o,
109,group_5,645,43,bomo,f,2211,8,distractor,
109,group_5,641,45,praca,f,1447,9,distractor,
109,group_5,686,43,roga,f,1239,10,distractor,
109,group_5,759,45,stado,f,1570,11,distractor,
109,group_5,646,27,pausto,f,1487,12,distractor,
109,group_5,606,20,fomero,f,1510,13,distractor,
109,group_5,736,27,pianta,f,1537,14,distractor,
109,group_5,783,20,folena,f,1401,15,distractor,
109,group_5,776,28,pulpa,j,1486,16,ident_a,
109,group_5,774,4,caña,j,1323,17,stem_o,
109,group_5,686,28,pulpa,j,1447,18,ident_a,
109,group_5,713,4,caño,j,1485,19,stem_o,
109,group_5,631,42,zapato,j,1189,20,ident_o,
109,group_5,794,38,tina,j,1431,21,ident_a,
109,group_5,715,42,zapato,j,1278,22,ident_o,
109,group_5,718,38,tina,j,1314,23,ident_a,
109,group_5,796,15,ciesca,f,1606,24,distractor,
109,group_5,603,6,pleito,j,1463,25,gender_o,
109,group_5,651,15,caisco,f,1550,26,distractor,
109,group_5,710,6,cigarro,j,1342,27,gender_o,
109,group_5,697,33,rumba,j,1429,28,ident_a,
109,group_5,626,40,tropso,f,1364,29,distractor,
109,group_5,637,33,rumba,j,1204,30,ident_a,
109,group_5,702,40,trimba,f,1534,31,distractor,
109,group_5,797,19,gimnasia,j,2149,32,stem_o,
109,group_5,738,14,cuba,j,1285,33,stem_o,
109,group_5,749,19,gimnasio,j,1423,34,stem_o,
109,group_5,729,14,cubo,j,1588,35,stem_o,
109,group_5,758,26,deuda,j,1322,36,gender_a,
109,group_5,655,33,rimpa,f,1325,37,distractor,
109,group_5,789,26,plaza,j,1412,38,gender_a,
109,group_5,765,33,runzo,f,1536,39,distractor,
109,group_5,606,37,tonaco,f,1252,40,distractor,
109,group_5,604,22,jiplena,f,1859,41,distractor,
109,group_5,653,37,dorina,f,1439,42,distractor,
109,group_5,764,22,biclero,f,1671,43,distractor,
109,group_5,759,1,circo,j,1324,44,gender_o,
109,group_5,611,17,foco,j,1177,45,ident_o,
109,group_5,786,1,bando,j,1651,46,gender_o,
109,group_5,723,17,foco,j,1307,47,ident_o,
109,group_5,793,2,bazo,j,1372,48,ident_o,
109,group_5,668,29,pupila,j,1359,49,stem_o,
109,group_5,721,2,bazo,j,1205,50,ident_o,
109,group_5,790,29,pupilo,j,1318,51,stem_o,
109,group_5,616,15,cuenco,j,1507,52,stem_a,
109,group_5,786,4,pafo,f,1410,53,distractor,
109,group_5,637,15,cuenca,j,1311,54,stem_a,
109,group_5,744,4,maba,f,1582,55,distractor,
109,group_5,635,5,cijo,f,1211,56,distractor,
109,group_5,712,26,fraja,f,1292,57,distractor,
109,group_5,687,5,cina,f,1403,58,distractor,
109,group_5,684,26,glajo,f,1467,59,distractor,
109,group_5,655,21,crano,f,1349,60,distractor,
109,group_5,687,31,retazo,j,1582,61,gender_o,
109,group_5,733,21,prasa,f,1578,62,distractor,
109,group_5,608,31,rodillo,j,1336,63,gender_o,
109,group_5,606,11,cucto,f,1544,64,distractor,
109,group_5,745,27,puerto,j,1563,65,ident_o,
109,group_5,749,11,masta,f,1869,66,distractor,
109,group_5,763,27,puerto,j,1679,67,ident_o,
109,group_5,628,37,solano,f,2028,68,ident_o,
109,group_5,632,8,pojo,f,1301,69,distractor,
109,group_5,617,37,solano,f,1239,70,ident_o,
109,group_5,676,8,moga,f,1449,71,distractor,
109,group_5,782,1,etapa,j,1647,72,gender_a,
109,group_5,692,30,ramo,j,1303,73,stem_a,
109,group_5,755,1,banda,j,1344,74,gender_a,
109,group_5,681,30,rama,j,1569,75,stem_a,
109,group_5,608,40,trompo,j,1735,76,stem_a,
109,group_5,787,31,esfera,j,1670,77,gender_a,
109,group_5,762,40,trompa,j,1478,78,stem_a,
109,group_5,684,31,rodilla,j,1226,79,gender_a,
109,group_5,662,16,faira,j,1217,80,distractor,
109,group_5,608,24,tofo,f,1642,81,distractor,
109,group_5,635,16,fiemo,f,1785,82,distractor,
109,group_5,608,24,pona,f,1282,83,distractor,
109,group_5,785,6,arcada,j,2469,84,gender_a,
109,group_5,719,18,fonda,j,1539,85,ident_a,
109,group_5,750,6,cigarra,j,1562,86,gender_a,
109,group_5,613,18,fonda,j,1287,87,ident_a,
109,group_5,622,31,dogalla,f,1451,88,distractor,
109,group_5,647,3,fraña,f,1307,89,distractor,
109,group_5,687,31,sopallo,f,1526,90,distractor,
109,group_5,712,3,plavo,f,1396,91,distractor,
109,group_5,662,41,tila,f,1370,92,gender_a,
109,group_5,634,34,sátira,j,1370,93,stem_o,
109,group_5,745,41,tuba,j,1375,94,gender_a,
109,group_5,734,34,sátiro,j,1313,95,stem_o,
109,group_5,693,32,rótulo,j,1390,96,ident_o,
109,group_5,719,14,puco,f,1447,97,distractor,
109,group_5,632,32,rótulo,j,1476,98,ident_o,
109,group_5,670,14,miba,f,1399,99,distractor,
109,group_5,605,8,coca,j,1327,100,ident_a,
109,group_5,632,36,rifra,f,1930,101,distractor,
109,group_5,601,8,coca,j,1465,102,ident_a,
109,group_5,691,36,tifro,f,1561,103,distractor,
109,group_5,652,29,murila,f,1508,104,distractor,
109,group_5,709,1,lunda,f,1361,105,distractor,
109,group_5,707,29,mubala,f,1428,106,distractor,
109,group_5,669,1,fendo,f,1270,107,distractor,
109,group_5,627,18,vindo,f,1350,108,distractor,
109,group_5,660,9,cochinilla,j,1679,109,stem_o,
109,group_5,700,18,lenda,f,1411,110,distractor,
109,group_5,785,9,cochinillo,j,1475,111,stem_o,
109,group_5,760,13,cuaderna,j,1506,112,ident_a,
109,group_5,649,25,flada,f,1683,113,distractor,
109,group_5,631,13,cuaderna,f,1862,114,ident_a,
109,group_5,659,25,brada,f,1337,115,distractor,
109,group_5,789,10,mecheo,f,2102,116,distractor,
109,group_5,768,35,leca,f,1452,117,distractor,
109,group_5,677,10,miplea,f,1234,118,distractor,
109,group_5,693,35,redo,f,1396,119,distractor,
109,group_5,737,11,letra,j,1473,120,gender_a,
109,group_5,729,7,cinto,j,1430,121,ident_o,
109,group_5,788,11,costa,j,1480,122,gender_a,
109,group_5,649,7,cinto,j,1825,123,ident_o,
109,group_5,625,41,buño,f,1489,124,distractor,
109,group_5,725,41,pozo,j,1663,125,gender_o,
109,group_5,656,41,tija,f,1432,126,distractor,
109,group_5,660,41,tubo,j,1838,127,gender_o,
109,group_5,633,2,rava,f,1396,128,distractor,
109,group_5,776,13,cualarsa,f,2419,129,distractor,
109,group_5,781,2,laño,f,1496,130,distractor,
109,group_5,640,13,cusbarno,f,1560,131,distractor,
109,group_5,622,3,braza,j,1376,132,ident_a,
109,group_5,732,36,selva,j,1363,133,gender_a,
109,group_5,698,3,braza,j,1612,134,ident_a,
109,group_5,734,36,sigla,j,2730,135,gender_a,
109,group_5,684,23,fopa,f,1316,136,distractor,
109,group_5,710,16,abeto,j,1468,137,gender_o,
109,group_5,782,23,rono,f,1615,138,distractor,
109,group_5,766,16,fauno,f,2164,139,gender_o,
109,group_5,618,32,doduza,f,1383,140,distractor,
109,group_5,712,34,madara,f,1624,141,distractor,
109,group_5,703,32,dosumo,f,1286,142,distractor,
109,group_5,660,34,pasino,f,1371,143,distractor,
109,group_5,694,23,loma,f,1536,144,ident_a,
109,group_5,705,11,metro,j,1357,145,gender_o,
109,group_5,744,23,loma,j,1430,146,ident_a,
109,group_5,681,11,costo,j,1182,147,gender_o,
109,group_5,691,35,seto,f,2148,148,stem_a,
109,group_5,619,12,coto,f,1668,149,ident_o,
109,group_5,680,35,seta,j,1663,150,stem_a,
109,group_5,791,12,coto,f,1535,151,ident_o,
109,group_5,609,17,rono,f,1367,152,distractor,
109,group_5,780,9,cotlericha,f,2429,153,distractor,
109,group_5,739,17,gona,f,2978,154,distractor,
109,group_5,665,9,cotlecirro,f,1515,155,distractor,
109,group_5,730,39,tonranto,f,1544,156,distractor,
109,group_5,632,16,falda,j,1392,157,gender_a,
109,group_5,724,39,borbanta,f,1602,158,distractor,
109,group_5,757,16,fauna,j,1635,159,gender_a,
109,group_5,703,12,tofa,f,1309,160,distractor,
109,group_5,611,20,gotero,j,1346,161,stem_a,
109,group_5,723,12,poño,f,1370,162,distractor,
109,group_5,670,20,gotera,j,1704,163,stem_a,
109,group_5,673,7,micto,f,1678,164,distractor,
109,group_5,737,30,sasa,f,1464,165,distractor,
109,group_5,685,7,custa,f,1368,166,distractor,
109,group_5,630,30,tago,f,1369,167,distractor,
109,group_5,715,42,zaniro,f,1819,168,distractor,
109,group_5,759,10,correo,j,1778,169,stem_a,
109,group_5,746,42,farana,f,1555,170,distractor,
109,group_5,735,10,correa,j,1811,171,stem_a,
109,group_5,732,25,plato,j,1575,172,stem_a,
109,group_5,719,38,sica,f,1501,173,distractor,
109,group_5,701,25,plata,j,1368,174,stem_a,
109,group_5,774,38,ripa,f,1617,175,distractor,
109,group_5,783,22,libreto,j,1512,176,ident_o,
109,group_5,674,44,bapo,f,1364,177,distractor,
109,group_5,777,22,libreto,j,1328,178,ident_o,
109,group_5,670,44,volo,f,1635,179,distractor,
109,group_5,724,5,cepo,f,1441,180,stem_a,
109,group_5,614,24,moda,j,1438,181,stem_o,
109,group_5,671,5,cepa,f,1832,182,stem_a,
109,group_5,715,24,modo,j,1481,183,stem_o,
109,group_5,701,28,punra,f,1392,184,distractor,
109,group_5,721,39,tormenta,j,1447,185,stem_o,
109,group_5,660,28,pusbo,f,1430,186,distractor,
109,group_5,763,39,tormento,j,1510,187,stem_o,
109,group_5,682,21,trigo,j,1469,188,gender_o,
109,group_5,656,6,cipicho,f,2196,189,distractor,
109,group_5,632,21,gramo,j,1282,190,gender_o,
109,group_5,781,6,cidicha,f,1453,191,distractor,
109,group_5,662,21,sarta,f,1616,192,gender_a,
109,group_5,691,19,gosdasia,f,1753,193,distractor,
109,group_5,653,21,grama,f,1453,194,gender_a,
109,group_5,623,19,fulnasio,f,1587,195,distractor,
109,group_5,638,36,miedo,j,1347,196,gender_o,
109,group_5,682,26,cielo,j,1280,197,gender_o,
109,group_5,661,36,siglo,j,1291,198,gender_o,
109,group_5,677,26,plazo,j,1275,199,gender_o,
89,group_5,690,32,doduza,j,3018,8,distractor,
89,group_5,635,10,miplea,f,2235,9,distractor,
89,group_5,689,32,dosumo,f,2533,10,distractor,
89,group_5,798,10,mecheo,j,2112,11,distractor,
89,group_5,788,41,tila,f,2920,12,gender_a,
89,group_5,725,3,braza,j,1488,13,ident_a,
89,group_5,732,41,tuba,j,1768,14,gender_a,
89,group_5,730,3,braza,j,1736,15,ident_a,
89,group_5,725,36,miedo,j,2432,16,gender_o,
89,group_5,613,26,fraja,f,1886,17,distractor,
89,group_5,619,36,siglo,j,1375,18,gender_o,
89,group_5,761,26,glajo,f,1984,19,distractor,
89,group_5,740,44,bapo,f,1624,20,distractor,
89,group_5,749,33,rimpa,f,1656,21,distractor,
89,group_5,618,44,volo,j,2560,22,distractor,
89,group_5,686,33,runzo,f,1657,23,distractor,
89,group_5,796,19,fulnasio,f,2567,24,distractor,
89,group_5,688,15,ciesca,j,2984,25,distractor,
89,group_5,705,19,gosdasia,f,3282,26,distractor,
89,group_5,721,15,caisco,f,2266,27,distractor,
89,group_5,761,39,tormenta,j,2044,28,stem_o,
89,group_5,691,39,tonranto,j,2344,29,distractor,
89,group_5,619,39,tormento,j,3472,30,stem_o,
89,group_5,794,39,borbanta,f,2433,31,distractor,
89,group_5,615,14,puco,f,1641,32,distractor,
89,group_5,604,28,punra,f,3512,33,distractor,
89,group_5,747,14,miba,f,3022,34,distractor,
89,group_5,729,28,pusbo,j,1736,35,distractor,
89,group_5,798,20,gotero,j,2282,36,stem_a,
89,group_5,607,24,tofo,f,2544,37,distractor,
89,group_5,626,20,gotera,j,1773,38,stem_a,
89,group_5,691,24,pona,f,1375,39,distractor,
89,group_5,640,30,ramo,j,1472,40,stem_a,
89,group_5,689,5,cina,f,1712,41,distractor,
89,group_5,768,30,rama,j,1528,42,stem_a,
89,group_5,691,5,cijo,f,2648,43,distractor,
89,group_5,616,30,tago,f,1656,44,distractor,
89,group_5,768,21,trigo,j,4992,45,gender_o,
89,group_5,636,30,sasa,f,1983,46,distractor,
89,group_5,642,21,gramo,j,2279,47,gender_o,
89,group_5,736,14,cuba,j,1578,48,stem_o,
89,group_5,713,1,fendo,f,2184,49,distractor,
89,group_5,722,14,cubo,j,1541,50,stem_o,
89,group_5,652,1,lunda,f,2033,51,distractor,
89,group_5,661,37,solano,f,3135,52,ident_o,
89,group_5,743,21,sarta,f,1864,53,gender_a,
89,group_5,622,37,solano,j,2954,54,ident_o,
89,group_5,615,21,grama,f,2037,55,gender_a,
89,group_5,705,15,cuenco,j,1882,56,stem_a,
89,group_5,720,23,loma,f,1430,57,ident_a,
89,group_5,725,15,cuenca,j,3632,58,stem_a,
89,group_5,773,23,loma,f,1464,59,ident_a,
89,group_5,800,13,cuaderna,f,2319,60,ident_a,
89,group_5,780,25,plato,j,2296,61,stem_a,
89,group_5,683,13,cuaderna,j,2065,62,ident_a,
89,group_5,646,25,plata,j,1695,63,stem_a,
89,group_5,623,38,sica,f,1898,64,distractor,
89,group_5,634,17,foco,j,1487,65,ident_o,
89,group_5,641,38,ripa,f,1314,66,distractor,
89,group_5,604,17,foco,j,1429,67,ident_o,
89,group_5,662,11,metro,j,1296,68,gender_o,
89,group_5,602,43,bomo,f,1298,69,distractor,
89,group_5,746,11,costo,j,1950,70,gender_o,
89,group_5,663,43,roga,f,1920,71,distractor,
89,group_5,722,40,tropso,f,2960,72,distractor,
89,group_5,619,8,pojo,f,1488,73,distractor,
89,group_5,728,40,trimba,f,2736,74,distractor,
89,group_5,618,8,moga,f,1768,75,distractor,
89,group_5,647,17,gona,f,2040,76,distractor,
89,group_5,668,6,cipicho,f,2088,77,distractor,
89,group_5,680,17,rono,f,1392,78,distractor,
89,group_5,681,6,cidicha,f,2288,79,distractor,
89,group_5,601,31,dogalla,f,1864,80,distractor,
89,group_5,759,35,seto,f,1672,81,stem_a,
89,group_5,692,31,sopallo,f,1487,82,distractor,
89,group_5,621,35,seta,j,1863,83,stem_a,
89,group_5,762,22,jiplena,f,1711,84,distractor,
89,group_5,762,38,tina,j,1530,85,ident_a,
89,group_5,641,22,biclero,f,1889,86,distractor,
89,group_5,637,38,tina,j,1245,87,ident_a,
89,group_5,637,36,tifro,f,1496,88,distractor,
89,group_5,654,29,murila,j,1904,89,distractor,
89,group_5,770,36,rifra,f,1946,90,distractor,
89,group_5,772,29,mubala,f,1622,91,distractor,
89,group_5,625,18,fonda,j,1288,92,ident_a,
89,group_5,704,45,praca,f,1450,93,distractor,
89,group_5,641,18,fonda,j,1968,94,ident_a,
89,group_5,777,45,stado,f,1776,95,distractor,
89,group_5,696,2,bazo,f,2077,96,ident_o,
89,group_5,666,16,abeto,j,1826,97,gender_o,
89,group_5,672,2,bazo,f,2854,98,ident_o,
89,group_5,687,16,fauno,j,2136,99,gender_o,
89,group_5,734,19,gimnasia,j,1961,100,stem_o,
89,group_5,671,32,rótulo,j,1623,101,ident_o,
89,group_5,632,19,gimnasio,j,1304,102,stem_o,
89,group_5,766,32,rótulo,j,1512,103,ident_o,
89,group_5,777,8,coca,j,1944,104,ident_a,
89,group_5,710,16,faira,f,2071,105,distractor,
89,group_5,745,8,coca,j,2705,106,ident_a,
89,group_5,636,16,fiemo,f,1542,107,distractor,
89,group_5,690,7,micto,f,1359,108,distractor,
89,group_5,680,34,sátira,f,1456,109,stem_o,
89,group_5,746,7,custa,f,1864,110,distractor,
89,group_5,701,34,sátiro,j,1160,111,stem_o,
89,group_5,704,9,cotlericha,f,2792,112,distractor,
89,group_5,615,20,folena,f,1698,113,distractor,
89,group_5,636,9,cotlecirro,f,1350,114,distractor,
89,group_5,686,20,fomero,f,1984,115,distractor,
89,group_5,791,41,pozo,j,1736,116,gender_o,
89,group_5,759,37,tonaco,f,5920,117,distractor,
89,group_5,708,41,tubo,f,1640,118,gender_o,
89,group_5,616,37,dorina,f,1464,119,distractor,
89,group_5,648,9,cochinilla,f,2024,120,stem_o,
89,group_5,720,4,pafo,f,1336,121,distractor,
89,group_5,773,9,cochinillo,j,1635,122,stem_o,
89,group_5,715,4,maba,f,1509,123,distractor,
89,group_5,789,21,prasa,f,1584,124,distractor,
89,group_5,728,6,arcada,f,2522,125,gender_a,
89,group_5,604,21,crano,f,2158,126,distractor,
89,group_5,685,6,cigarra,f,1561,127,gender_a,
89,group_5,649,10,correo,j,1750,128,stem_a,
89,group_5,735,2,rava,f,1985,129,distractor,
89,group_5,609,10,correa,j,1750,130,stem_a,
89,group_5,726,2,laño,f,2776,131,distractor,
89,group_5,774,27,pianta,f,5609,132,distractor,
89,group_5,690,6,pleito,j,3815,133,gender_o,
89,group_5,698,27,pausto,f,4609,134,distractor,
89,group_5,788,6,cigarro,j,1616,135,gender_o,
89,group_5,685,23,rono,f,1352,136,distractor,
89,group_5,641,34,madara,f,2512,137,distractor,
89,group_5,631,23,fopa,f,1504,138,distractor,
89,group_5,665,34,pasino,f,4028,139,distractor,
89,group_5,767,26,deuda,j,1622,140,gender_a,
89,group_5,624,29,pupila,j,1584,141,stem_o,
89,group_5,713,26,plaza,j,6887,142,gender_a,
89,group_5,730,29,pupilo,j,3033,143,stem_o,
89,group_5,726,22,libreto,f,1936,144,ident_o,
89,group_5,784,31,esfera,j,1943,145,gender_a,
89,group_5,783,22,libreto,j,1432,146,ident_o,
89,group_5,636,31,rodilla,j,2335,147,gender_a,
89,group_5,644,4,caña,j,1977,148,stem_o,
89,group_5,679,26,cielo,j,1291,149,gender_o,
89,group_5,615,4,caño,j,1973,150,stem_o,
89,group_5,768,26,plazo,j,1409,151,gender_o,
89,group_5,695,12,coto,f,1583,152,ident_o,
89,group_5,692,25,flada,f,2344,153,distractor,
89,group_5,708,12,coto,f,1600,154,ident_o,
89,group_5,620,25,brada,f,1584,155,distractor,
89,group_5,631,5,cepo,f,1656,156,stem_a,
89,group_5,642,41,tija,f,1768,157,distractor,
89,group_5,611,5,cepa,f,1088,158,stem_a,
89,group_5,761,41,buño,f,1544,159,distractor,
89,group_5,793,12,poño,f,1447,160,distractor,
89,group_5,710,40,trompo,f,2584,161,stem_a,
89,group_5,706,12,tofa,f,1295,162,distractor,
89,group_5,678,40,trompa,f,1520,163,stem_a,
89,group_5,763,16,falda,j,1735,164,gender_a,
89,group_5,743,13,cusbarno,f,1801,165,distractor,
89,group_5,770,16,fauna,j,2983,166,gender_a,
89,group_5,753,13,cualarsa,f,2051,167,distractor,
89,group_5,746,1,circo,j,1765,168,gender_o,
89,group_5,605,7,cinto,j,1400,169,ident_o,
89,group_5,731,1,bando,f,1601,170,gender_o,
89,group_5,627,7,cinto,j,1271,171,ident_o,
89,group_5,759,31,retazo,f,1736,172,gender_o,
89,group_5,622,36,selva,j,2249,173,gender_a,
89,group_5,746,31,rodillo,f,2714,174,gender_o,
89,group_5,784,36,sigla,j,2597,175,gender_a,
89,group_5,647,18,vindo,f,1689,176,distractor,
89,group_5,638,11,cucto,f,2150,177,distractor,
89,group_5,628,18,lenda,f,2561,178,distractor,
89,group_5,688,11,masta,f,8040,179,distractor,
89,group_5,644,24,moda,j,1408,180,stem_o,
89,group_5,684,28,pulpa,j,1504,181,ident_a,
89,group_5,697,24,modo,j,1729,182,stem_o,
89,group_5,687,28,pulpa,j,2167,183,ident_a,
89,group_5,694,33,rumba,j,2112,184,ident_a,
89,group_5,662,35,leca,f,1535,185,distractor,
89,group_5,696,33,rumba,j,1465,186,ident_a,
89,group_5,795,35,redo,f,1774,187,distractor,
89,group_5,768,42,farana,f,1635,188,distractor,
89,group_5,671,11,letra,j,1541,189,gender_a,
89,group_5,628,42,zaniro,f,1640,190,distractor,
89,group_5,712,11,costa,j,1848,191,gender_a,
89,group_5,753,42,zapato,j,2712,192,ident_o,
89,group_5,630,27,puerto,j,1408,193,ident_o,
89,group_5,636,42,zapato,j,1488,194,ident_o,
89,group_5,628,27,puerto,j,1424,195,ident_o,
89,group_5,663,3,plavo,f,1504,196,distractor,
89,group_5,694,1,etapa,j,2016,197,gender_a,
89,group_5,788,3,fraña,f,1936,198,distractor,
89,group_5,608,1,banda,j,1650,199,gender_a,
93,group_4,669,32,tracto,j,1937,8,gender_o,
93,group_4,782,31,rodillo,j,1501,9,stem_a,
93,group_4,797,32,rótulo,j,1436,10,gender_o,
93,group_4,708,31,rodilla,j,1345,11,stem_a,
93,group_4,676,37,tonaco,f,1573,12,distractor,
93,group_4,741,37,picota,j,2068,13,gender_a,
93,group_4,757,37,dorina,f,1661,14,distractor,
93,group_4,662,37,solana,j,1833,15,gender_a,
93,group_4,622,27,cabeza,j,1313,16,gender_a,
93,group_4,766,40,trompa,j,1539,17,stem_o,
93,group_4,648,27,puerta,j,1303,18,gender_a,
93,group_4,629,40,trompo,j,1313,19,stem_o,
93,group_4,748,20,folena,f,1567,20,distractor,
93,group_4,600,40,tropso,f,1379,21,distractor,
93,group_4,630,20,fomero,f,1378,22,distractor,
93,group_4,615,40,trimba,f,1397,23,distractor,
93,group_4,772,18,fondo,j,1530,24,ident_o,
93,group_4,705,1,fendo,f,1475,25,distractor,
93,group_4,761,18,fondo,j,1680,26,ident_o,
93,group_4,755,1,lunda,f,1549,27,distractor,
93,group_4,790,13,cuaderno,j,1426,28,ident_o,
93,group_4,765,2,popa,j,2154,29,gender_a,
93,group_4,679,13,cuaderno,j,1606,30,ident_o,
93,group_4,679,2,baza,f,1666,31,gender_a,
93,group_4,749,33,rimpa,f,1593,32,distractor,
93,group_4,668,41,tija,f,1441,33,distractor,
93,group_4,610,33,runzo,f,1284,34,distractor,
93,group_4,651,41,buño,f,1431,35,distractor,
93,group_4,697,39,borbanta,f,1625,36,distractor,
93,group_4,620,44,bapo,f,1304,37,distractor,
93,group_4,707,39,tonranto,f,1473,38,distractor,
93,group_4,765,44,volo,f,2419,39,distractor,
93,group_4,800,12,lino,j,1860,40,gender_o,
93,group_4,646,5,cepa,j,1407,41,stem_o,
93,group_4,637,12,coto,f,2050,42,gender_o,
93,group_4,660,5,cepo,j,1268,43,stem_o,
93,group_4,609,32,doduza,f,1309,44,distractor,
93,group_4,701,4,caña,j,1237,45,ident_a,
93,group_4,733,32,dosumo,f,1340,46,distractor,
93,group_4,769,4,caña,j,1322,47,ident_a,
93,group_4,630,26,plazo,j,1255,48,stem_a,
93,group_4,623,10,mecheo,j,1946,49,distractor,
93,group_4,633,26,plaza,j,1184,50,stem_a,
93,group_4,742,10,miplea,f,1565,51,distractor,
93,group_4,753,28,pulpo,j,1342,52,ident_o,
93,group_4,615,45,praca,f,1426,53,distractor,
93,group_4,798,28,pulpo,j,1398,54,ident_o,
93,group_4,672,45,stado,j,1493,55,distractor,
93,group_4,738,36,siglo,j,1409,56,stem_a,
93,group_4,715,23,lomo,j,1537,57,ident_o,
93,group_4,658,36,sigla,j,1210,58,stem_a,
93,group_4,617,23,lomo,j,1166,59,ident_o,
93,group_4,634,3,brazo,j,1309,60,ident_o,
93,group_4,645,32,sonata,j,1317,61,gender_a,
93,group_4,648,3,brazo,j,1139,62,ident_o,
93,group_4,614,32,rótula,j,1296,63,gender_a,
93,group_4,775,36,tifro,f,1509,64,distractor,
93,group_4,656,8,moga,f,1322,65,distractor,
93,group_4,724,36,rifra,f,1455,66,distractor,
93,group_4,757,8,pojo,f,2053,67,distractor,
93,group_4,771,25,brada,f,1489,68,distractor,
93,group_4,703,27,teatro,j,1348,69,gender_o,
93,group_4,750,25,flada,f,1757,70,distractor,
93,group_4,785,27,puerto,j,1465,71,gender_o,
93,group_4,600,43,bomo,f,1398,72,distractor,
93,group_4,759,5,cina,f,1567,73,distractor,
93,group_4,617,43,roga,f,1274,74,distractor,
93,group_4,758,5,cijo,f,1342,75,distractor,
93,group_4,733,6,cidicha,f,1445,76,distractor,
93,group_4,642,9,cotlericha,f,1294,77,distractor,
93,group_4,675,6,cipicho,f,1313,78,distractor,
93,group_4,710,9,cotlecirro,f,1392,79,distractor,
93,group_4,672,39,tormenta,j,1252,80,ident_a,
93,group_4,771,42,canica,j,1520,81,gender_a,
93,group_4,769,39,tormenta,j,1246,82,ident_a,
93,group_4,708,42,zapata,j,1342,83,gender_a,
93,group_4,759,3,plavo,f,1835,84,distractor,
93,group_4,726,17,rono,f,1380,85,distractor,
93,group_4,783,3,fraña,f,1432,86,distractor,
93,group_4,675,17,gona,f,1369,87,distractor,
93,group_4,608,22,pantano,j,1510,88,gender_o,
93,group_4,639,23,fopa,f,1246,89,distractor,
93,group_4,648,22,libreto,j,1506,90,gender_o,
93,group_4,781,23,rono,f,1469,91,distractor,
93,group_4,734,10,correa,j,1540,92,stem_o,
93,group_4,706,12,musa,j,1599,93,gender_a,
93,group_4,630,10,correo,j,1140,94,stem_o,
93,group_4,794,12,cota,j,2418,95,gender_a,
93,group_4,781,18,lenda,f,1571,96,distractor,
93,group_4,778,42,espejo,j,1573,97,gender_o,
93,group_4,706,18,vindo,f,1407,98,distractor,
93,group_4,752,42,zapato,j,1832,99,gender_o,
93,group_4,706,7,junco,j,1691,100,gender_o,
93,group_4,630,6,cigarro,j,1108,101,stem_a,
93,group_4,681,7,cinto,j,1232,102,gender_o,
93,group_4,640,6,cigarra,j,1133,103,stem_a,
93,group_4,664,24,moda,j,1096,104,ident_a,
93,group_4,613,14,miba,f,1181,105,distractor,
93,group_4,695,24,moda,j,1123,106,ident_a,
93,group_4,696,14,puco,f,1440,107,distractor,
93,group_4,725,25,plata,j,1282,108,stem_o,
93,group_4,722,4,pafo,f,1396,109,distractor,
93,group_4,602,25,plato,j,1251,110,stem_o,
93,group_4,707,4,maba,f,1337,111,distractor,
93,group_4,707,22,brigada,j,1502,112,gender_a,
93,group_4,621,28,pusbo,f,1427,113,distractor,
93,group_4,716,22,libreta,j,1378,114,gender_a,
93,group_4,606,28,punra,f,1341,115,distractor,
93,group_4,726,7,magia,j,1599,116,gender_a,
93,group_4,640,12,tofa,f,1273,117,distractor,
93,group_4,642,7,cinta,j,1237,118,gender_a,
93,group_4,601,12,poño,f,1332,119,distractor,
93,group_4,627,11,costo,j,1312,120,stem_a,
93,group_4,762,2,laño,f,1654,121,distractor,
93,group_4,734,11,costa,j,1964,122,stem_a,
93,group_4,633,2,rava,f,1426,123,distractor,
93,group_4,767,13,cualarsa,f,1776,124,distractor,
93,group_4,668,15,cuenca,j,1795,125,stem_o,
93,group_4,703,13,cusbarno,f,1388,126,distractor,
93,group_4,800,15,cuenco,j,1861,127,stem_o,
93,group_4,652,29,pupila,j,1455,128,ident_a,
93,group_4,737,17,jugo,j,1445,129,gender_o,
93,group_4,658,29,pupila,j,1231,130,ident_a,
93,group_4,702,17,foco,j,1254,131,gender_o,
93,group_4,710,37,cedazo,f,1510,132,gender_o,
93,group_4,726,21,gramo,j,2050,133,stem_a,
93,group_4,729,37,solano,j,1502,134,gender_o,
93,group_4,700,21,grama,f,1626,135,stem_a,
93,group_4,616,35,seta,j,1287,136,stem_o,
93,group_4,743,9,cochinilla,j,1433,137,ident_a,
93,group_4,632,35,seto,j,1540,138,stem_o,
93,group_4,650,9,cochinilla,j,1256,139,ident_a,
93,group_4,621,41,tubo,j,1209,140,stem_a,
93,group_4,619,30,sasa,f,1559,141,distractor,
93,group_4,755,41,tuba,j,1822,142,stem_a,
93,group_4,647,30,tago,f,1512,143,distractor,
93,group_4,766,17,lira,j,1672,144,gender_a,
93,group_4,706,30,rama,j,1303,145,stem_o,
93,group_4,631,17,foca,j,1209,146,gender_a,
93,group_4,667,30,ramo,j,1180,147,stem_o,
93,group_4,705,7,micto,f,1342,148,distractor,
93,group_4,705,34,madara,f,1595,149,distractor,
93,group_4,688,7,custa,f,1559,150,distractor,
93,group_4,662,34,pasino,f,1618,151,distractor,
93,group_4,785,20,gotera,j,1443,152,stem_o,
93,group_4,734,22,jiplena,f,1428,153,distractor,
93,group_4,625,20,gotero,j,1248,154,stem_o,
93,group_4,712,22,biclero,f,1564,155,distractor,
93,group_4,644,2,dolo,f,1237,156,gender_o,
93,group_4,727,24,tofo,f,1690,157,distractor,
93,group_4,670,2,bazo,f,1199,158,gender_o,
93,group_4,617,24,pona,f,1361,159,distractor,
93,group_4,711,21,prasa,f,1438,160,distractor,
93,group_4,762,29,mubala,f,1320,161,distractor,
93,group_4,605,21,crano,f,1587,162,distractor,
93,group_4,646,29,murila,f,1417,163,distractor,
93,group_4,701,15,ciesca,f,1445,164,distractor,
93,group_4,652,35,leca,f,1211,165,distractor,
93,group_4,767,15,caisco,f,1416,166,distractor,
93,group_4,678,35,redo,f,1218,167,distractor,
93,group_4,625,38,tino,j,2044,168,ident_o,
93,group_4,696,19,gimnasia,j,1251,169,ident_a,
93,group_4,686,38,tino,j,1435,170,ident_o,
93,group_4,688,19,gimnasia,j,1200,171,ident_a,
93,group_4,760,42,zaniro,f,1437,172,distractor,
93,group_4,774,31,dogalla,f,1509,173,distractor,
93,group_4,632,42,farana,f,1297,174,distractor,
93,group_4,765,31,sopallo,f,1434,175,distractor,
93,group_4,795,33,rumbo,j,1529,176,ident_o,
93,group_4,705,8,coco,j,1529,177,ident_o,
93,group_4,702,33,rumbo,j,1284,178,ident_o,
93,group_4,764,8,coco,j,1239,179,ident_o,
93,group_4,773,26,glajo,f,1398,180,distractor,
93,group_4,755,1,bando,f,1443,181,stem_a,
93,group_4,762,26,fraja,f,2020,182,distractor,
93,group_4,631,1,banda,j,1240,183,stem_a,
93,group_4,760,27,pausto,f,1541,184,distractor,
93,group_4,768,19,fulnasio,f,1421,185,distractor,
93,group_4,765,27,pianta,f,1426,186,distractor,
93,group_4,800,19,gosdasia,f,1372,187,distractor,
93,group_4,615,16,fauno,j,1330,188,stem_a,
93,group_4,783,14,cuba,j,1292,189,ident_a,
93,group_4,720,16,fauna,j,1314,190,stem_a,
93,group_4,658,14,cuba,j,1265,191,ident_a,
93,group_4,633,11,cucto,f,1398,192,distractor,
93,group_4,677,38,ripa,f,1690,193,distractor,
93,group_4,694,11,masta,f,1260,194,distractor,
93,group_4,709,38,sica,f,1539,195,distractor,
93,group_4,748,34,sátira,j,1367,196,ident_a,
93,group_4,797,16,faira,f,1673,197,distractor,
93,group_4,644,34,sátira,j,1266,198,ident_a,
93,group_4,704,16,fiemo,f,1435,199,distractor,
88,group_4,695,11,costo,j,1889,8,stem_a,
88,group_4,641,16,faira,f,1703,9,distractor,
88,group_4,779,11,costa,j,1753,10,stem_a,
88,group_4,642,16,fiemo,f,1544,11,distractor,
88,group_4,800,13,cualarsa,f,1911,12,distractor,
88,group_4,662,8,moga,f,1823,13,distractor,
88,group_4,648,13,cusbarno,f,1856,14,distractor,
88,group_4,773,8,pojo,f,1872,15,distractor,
88,group_4,707,29,murila,f,1902,16,distractor,
88,group_4,732,23,lomo,j,1495,17,ident_o,
88,group_4,791,29,mubala,f,1799,18,distractor,
88,group_4,736,23,lomo,j,1336,19,ident_o,
88,group_4,627,33,rimpa,f,1352,20,distractor,
88,group_4,724,1,lunda,f,2071,21,distractor,
88,group_4,739,33,runzo,f,1376,22,distractor,
88,group_4,722,1,fendo,f,1489,23,distractor,
88,group_4,666,39,tormenta,j,1263,24,ident_a,
88,group_4,668,21,prasa,f,1583,25,distractor,
88,group_4,671,39,tormenta,j,1327,26,ident_a,
88,group_4,707,21,crano,f,1577,27,distractor,
88,group_4,647,31,rodillo,j,1535,28,stem_a,
88,group_4,757,40,trimba,f,1513,29,distractor,
88,group_4,789,31,rodilla,j,1440,30,stem_a,
88,group_4,668,40,tropso,f,1368,31,distractor,
88,group_4,692,26,glajo,f,1471,32,distractor,
88,group_4,622,28,pulpo,j,1280,33,ident_o,
88,group_4,667,26,fraja,f,1367,34,distractor,
88,group_4,769,28,pulpo,j,1264,35,ident_o,
88,group_4,604,36,siglo,j,2007,36,stem_a,
88,group_4,650,15,cuenca,j,1592,37,stem_o,
88,group_4,791,36,sigla,f,1599,38,stem_a,
